time (s)	coil I (A)	last det (V)	int current (uC)
9440.656847	0.694677	0.293757	305.657654
9440.657769	0.254806	0.293757	540.588684
9440.658675	0.249712	0.293757	766.827698
9440.659629	0.456024	0.293757	1201.874756
9440.660528	0.098632	0.293757	1290.544556
9440.661426	0.102180	0.293757	1382.302368
9440.662316	0.102242	0.293757	1473.298096
9440.663270	0.099573	0.293757	1568.290527
9440.664171	0.100118	0.293757	1658.497192
9440.665072	0.102048	0.293757	1750.442749
9440.665960	0.100364	0.293757	1839.565796
9440.666923	0.099364	0.293757	1935.253296
9440.667826	0.101272	0.293757	2026.701904
9440.668723	0.102590	0.293757	2118.725342
9441.694158	0.686627	0.252459	304.862488
9441.695062	0.254780	0.252459	535.183838
9441.695963	0.249492	0.252459	759.976318
9441.696915	0.484768	0.252459	1221.475464
9441.697829	0.099723	0.252459	1312.622192
9441.698723	0.102078	0.252459	1403.879639
9441.699659	0.100206	0.252459	1497.672729
9441.700560	0.099961	0.252459	1587.737549
9441.701463	0.102206	0.252459	1680.029419
9441.702354	0.102096	0.252459	1770.996948
9441.703303	0.099492	0.252459	1865.415039
9441.704213	0.100320	0.252459	1956.706055
9441.705112	0.101078	0.252459	2047.575073
9441.706022	0.099595	0.252459	2138.206299
9442.706912	0.675890	0.266828	303.474579
9442.707827	0.254670	0.266828	536.497986
9442.708732	0.249093	0.266828	761.927124
9442.709685	0.483549	0.266828	1222.748901
9442.710586	0.099020	0.266828	1311.965698
9442.711487	0.101169	0.266828	1403.119385
9442.712376	0.100767	0.266828	1492.700928
9442.713321	0.099434	0.266828	1586.665649
9442.714231	0.101147	0.266828	1678.709839
9442.715120	0.101235	0.266828	1768.708008
9442.716063	0.100111	0.266828	1863.112793
9442.716953	0.099254	0.266828	1951.448975
9442.717854	0.101455	0.266828	2042.859985
9442.718746	0.102367	0.266828	2134.171387
9443.709445	0.696105	0.286546	346.660156
9443.710358	0.255018	0.286546	579.491882
9443.711256	0.248796	0.286546	802.911072
9443.712155	0.486951	0.286546	1240.679687
9443.713099	0.098774	0.286546	1333.922729
9443.713996	0.101353	0.286546	1424.835937
9443.714892	0.101979	0.286546	1516.208862
9443.715802	0.101147	0.286546	1608.253052
9443.716732	0.099547	0.286546	1700.831909
9443.717642	0.101074	0.286546	1792.809448
9443.718540	0.101353	0.286546	1883.823975
9443.719482	0.099580	0.286546	1977.628418
9443.720384	0.099375	0.286546	2067.264648
9443.721280	0.101140	0.286546	2157.886230
9444.746748	0.719381	0.263464	351.057983
9444.747672	0.254689	0.263464	586.390381
9444.748591	0.248518	0.263464	814.778503
9444.749491	0.474884	0.263464	1242.174072
9444.750427	0.099767	0.263464	1335.555786
9444.751333	0.101770	0.263464	1427.759399
9444.752257	0.102385	0.263464	1522.363403
9444.753145	0.100591	0.263464	1611.687988
9444.754103	0.101342	0.263464	1708.773193
9444.755007	0.101539	0.263464	1800.564697
9444.755899	0.101096	0.263464	1890.742554
9444.756835	0.100162	0.263464	1984.494507
9444.757737	0.101199	0.263464	2075.775879
9444.758659	0.100997	0.263464	2168.895508
9445.753299	0.686521	0.298426	304.815308
9445.754217	0.255143	0.298426	539.036438
9445.755129	0.249664	0.298426	766.730286
9445.756098	0.487013	0.298426	1238.645752
9445.756997	0.099243	0.298426	1327.865356
9445.757897	0.101404	0.298426	1419.128784
9445.758786	0.101243	0.298426	1509.133545
9445.759725	0.099507	0.298426	1602.570435
9445.760634	0.100858	0.298426	1694.250488
9445.761534	0.101115	0.298426	1785.253540
9445.762475	0.099631	0.298426	1879.006592
9445.763385	0.098950	0.298426	1969.051270
9445.764284	0.101887	0.298426	2060.647949
9445.765171	0.100386	0.298426	2149.690186
9446.773214	0.678450	0.260399	304.623901
9446.774120	0.254586	0.260399	535.278992
9446.775050	0.249276	0.260399	767.105774
9446.775971	0.390260	0.260399	1126.535278
9446.776900	0.099426	0.260399	1218.902344
9446.777805	0.102100	0.260399	1311.302490
9446.778693	0.102612	0.260399	1402.422241
9446.779621	0.099800	0.260399	1495.036499
9446.780526	0.101316	0.260399	1586.727417
9446.781426	0.103334	0.260399	1679.727783
9446.782315	0.101418	0.260399	1769.888794
9446.783268	0.099207	0.260399	1864.432617
9446.784168	0.101785	0.260399	1956.038818
9446.785060	0.101598	0.260399	2046.664185
9447.794127	0.720227	0.291731	314.019012
9447.795025	0.254949	0.291731	542.963013
9447.795977	0.249463	0.291731	780.451660
9447.796897	0.476649	0.291731	1218.968994
9447.797797	0.100697	0.291731	1309.596313
9447.798690	0.101100	0.291731	1399.878540
9447.799634	0.099756	0.291731	1494.048096
9447.800543	0.101752	0.291731	1586.540405
9447.801433	0.101510	0.291731	1676.884277
9447.802377	0.100408	0.291731	1771.669189
9447.803272	0.099320	0.291731	1860.560669
9447.804169	0.101818	0.291731	1951.891113
9447.805065	0.101115	0.291731	2042.489746
9447.806012	0.099203	0.291731	2136.434814
9448.795591	0.715159	0.272915	313.239502
9448.796572	0.255055	0.272915	563.448425
9448.797482	0.248383	0.272915	789.476562
9448.798380	0.481252	0.272915	1221.641235
9448.799321	0.099470	0.272915	1315.242676
9448.800237	0.101166	0.272915	1407.910522
9448.801138	0.102748	0.272915	1500.486328
9448.802027	0.101539	0.272915	1590.754761
9448.802980	0.099705	0.272915	1685.773193
9448.803894	0.101803	0.272915	1778.821167
9448.804792	0.102078	0.272915	1870.486938
9448.805737	0.099569	0.272915	1964.579712
9448.806633	0.099686	0.272915	2053.898682
9448.807529	0.100635	0.272915	2144.067383
9449.834954	0.728972	0.294752	320.747772
9449.835925	0.254795	0.294752	568.153625
9449.836834	0.248207	0.294752	793.773560
9449.837747	0.484332	0.294752	1235.968994
9449.838692	0.099891	0.294752	1330.366333
9449.839601	0.100005	0.294752	1421.270752
9449.840498	0.101100	0.294752	1511.957275
9449.841390	0.102865	0.294752	1603.712891
9449.842344	0.099360	0.294752	1698.502686
9449.843241	0.099899	0.294752	1788.111816
9449.844145	0.101147	0.294752	1879.549072
9449.845032	0.101217	0.294752	1969.328613
9449.845978	0.098862	0.294752	2062.852295
9449.846878	0.099573	0.294752	2152.467773
9450.834389	0.701096	0.289213	313.389984
9450.835285	0.254905	0.289213	541.784668
9450.836278	0.248646	0.289213	788.690369
9450.837186	0.481425	0.289213	1225.823853
9450.838075	0.102469	0.289213	1316.919189
9450.839016	0.100547	0.289213	1411.533813
9450.839917	0.100485	0.289213	1502.070435
9450.840817	0.101774	0.289213	1593.666748
9450.841714	0.100562	0.289213	1683.870483
9450.842655	0.099166	0.289213	1777.185913
9450.843564	0.100031	0.289213	1868.113647
9450.844464	0.101462	0.289213	1959.429810
9450.845392	0.099437	0.289213	2051.707520
9450.846293	0.098848	0.289213	2140.769287
9451.875811	0.648735	0.301085	293.228363
9451.876736	0.255190	0.301085	529.279541
9451.877636	0.249463	0.301085	753.796143
9451.878608	0.469951	0.301085	1210.588623
9451.879504	0.098525	0.301085	1298.867432
9451.880399	0.101997	0.301085	1390.154785
9451.881292	0.102374	0.301085	1481.574951
9451.882232	0.099540	0.301085	1575.142334
9451.883139	0.100291	0.301085	1666.105835
9451.884047	0.101880	0.301085	1758.612793
9451.884958	0.101561	0.301085	1851.135132
9451.885881	0.099375	0.301085	1942.858276
9451.886784	0.100137	0.301085	2033.281738
9451.887679	0.101404	0.301085	2124.038086
9452.872151	0.679636	0.279191	297.680664
9452.873063	0.254872	0.279191	530.123779
9452.873978	0.249543	0.279191	758.456055
9452.874910	0.404572	0.279191	1135.516724
9452.875823	0.098822	0.279191	1225.741211
9452.876727	0.100664	0.279191	1316.741577
9452.877617	0.102202	0.279191	1407.701538
9452.878540	0.099401	0.279191	1499.448364
9452.879451	0.099272	0.279191	1589.885620
9452.880357	0.101744	0.279191	1682.066040
9452.881249	0.100624	0.279191	1771.822510
9452.882201	0.099001	0.279191	1866.071899
9452.883104	0.099507	0.279191	1955.926514
9452.884003	0.101246	0.279191	2046.947021
9453.915601	0.700474	0.289628	308.908875
9453.916522	0.255190	0.289628	543.939270
9453.917426	0.249521	0.289628	769.506714
9453.918396	0.482545	0.289628	1237.575562
9453.919294	0.098950	0.289628	1326.432861
9453.920193	0.102297	0.289628	1418.398193
9453.921078	0.101997	0.289628	1508.665649
9453.922020	0.099756	0.289628	1602.635620
9453.922923	0.100031	0.289628	1692.963135
9453.923829	0.102059	0.289628	1785.428833
9453.924718	0.100895	0.289628	1875.124268
9453.925660	0.099210	0.289628	1968.580322
9453.926569	0.099939	0.289628	2059.424805
9453.927469	0.100627	0.289628	2149.989502
9454.907847	0.720154	0.257253	315.427368
9454.908833	0.254938	0.257253	566.795959
9454.909750	0.248177	0.257253	794.374695
9454.910657	0.481948	0.257253	1231.501709
9454.911594	0.099371	0.257253	1324.612671
9454.912504	0.099529	0.257253	1415.183838
9454.913399	0.102261	0.257253	1506.707153
9454.914292	0.100986	0.257253	1596.887939
9454.915226	0.099415	0.257253	1689.741821
9454.916128	0.100100	0.257253	1780.032104
9454.917030	0.102957	0.257253	1872.898926
9454.917921	0.101078	0.257253	1962.959351
9454.918872	0.099258	0.257253	2057.353516
9454.919789	0.100411	0.257253	2149.430664
9455.950293	0.686583	0.274095	306.902710
9455.951190	0.255081	0.274095	535.709961
9455.952108	0.249767	0.274095	764.995911
9455.953066	0.492543	0.274095	1236.851807
9455.953960	0.101136	0.274095	1327.267822
9455.954850	0.101810	0.274095	1417.879028
9455.955793	0.100441	0.274095	1512.594604
9455.956688	0.101635	0.274095	1603.557495
9455.957604	0.101569	0.274095	1696.594360
9455.958504	0.101349	0.274095	1787.808350
9455.959447	0.100400	0.274095	1882.485962
9455.960348	0.100594	0.274095	1973.121582
9455.961239	0.101722	0.274095	2063.756348
9455.962160	0.100089	0.274095	2155.938477
9456.939474	0.704623	0.251270	314.261780
9456.940379	0.255209	0.251270	545.225708
9456.941335	0.249423	0.251270	783.673706
9456.942268	0.487811	0.251270	1238.801636
9456.943166	0.101664	0.251270	1330.095703
9456.944054	0.101763	0.251270	1420.460937
9456.945010	0.099741	0.251270	1515.813477
9456.945912	0.100441	0.251270	1606.411011
9456.946817	0.100909	0.251270	1697.734009
9456.947703	0.100107	0.251270	1786.429199
9456.948642	0.099097	0.251270	1879.480957
9456.949554	0.101089	0.251270	1971.673950
9456.950448	0.101649	0.251270	2062.548340
9456.951382	0.100349	0.251270	2156.274414
9457.976790	0.719205	0.276738	320.046356
9457.977688	0.254718	0.276738	548.783142
9457.978616	0.249426	0.276738	780.250732
9457.979565	0.487749	0.276738	1243.124512
9457.980465	0.101210	0.276738	1334.213257
9457.981352	0.101876	0.276738	1424.577515
9457.982298	0.100591	0.276738	1519.736450
9457.983196	0.101495	0.276738	1610.879272
9457.984108	0.102122	0.276738	1704.014160
9457.985005	0.101294	0.276738	1794.874878
9457.985941	0.100510	0.276738	1888.952515
9457.986843	0.101049	0.276738	1980.098389
9457.987738	0.101763	0.276738	2071.176025
9457.988671	0.099862	0.276738	2164.347412
9458.981392	0.563866	0.246924	286.443909
9458.982304	0.255688	0.246924	519.631836
9458.983205	0.249207	0.246924	744.166931
9458.984106	0.486951	0.246924	1182.909424
9458.985052	0.099155	0.246924	1276.710327
9458.985969	0.100803	0.246924	1369.146851
9458.986870	0.102140	0.246924	1461.174927
9458.987794	0.100294	0.246924	1553.846802
9458.988693	0.099877	0.246924	1643.635986
9458.989596	0.102301	0.246924	1736.013794
9458.990482	0.102023	0.246924	1826.405884
9458.991420	0.099500	0.246924	1919.736450
9458.992316	0.099913	0.246924	2009.258789
9458.993215	0.101331	0.246924	2100.354980
9460.001217	0.719623	0.281374	311.596680
9460.002172	0.255245	0.281374	555.356018
9460.003094	0.248903	0.281374	784.844177
9460.004035	0.481154	0.281374	1237.609619
9460.004925	0.100232	0.281374	1326.816040
9460.005881	0.101071	0.281374	1423.439453
9460.006775	0.102729	0.281374	1515.279663
9460.007664	0.102290	0.281374	1606.215454
9460.008594	0.100060	0.281374	1699.271118
9460.009497	0.101971	0.281374	1791.351318
9460.010409	0.102356	0.281374	1884.699951
9460.011302	0.101576	0.281374	1975.407227
9460.012242	0.099485	0.281374	2068.923096
9460.013145	0.100411	0.281374	2159.594482
9461.029332	0.690765	0.248479	307.390594
9461.030229	0.255190	0.248479	536.296387
9461.031176	0.249591	0.248479	772.659119
9461.032097	0.487438	0.248479	1221.589233
9461.032995	0.100642	0.248479	1311.965820
9461.033882	0.100646	0.248479	1401.238647
9461.034820	0.099855	0.248479	1494.902344
9461.035734	0.101375	0.248479	1587.558594
9461.036634	0.101316	0.248479	1678.742920
9461.037569	0.100089	0.248479	1772.326294
9461.038470	0.099639	0.248479	1862.100708
9461.039375	0.100895	0.248479	1953.410522
9461.040263	0.101971	0.248479	2043.961182
9461.041219	0.099269	0.248479	2138.862061
9462.030793	0.719385	0.271227	312.213013
9462.031743	0.255245	0.271227	554.696106
9462.032656	0.249448	0.271227	782.442322
9462.033588	0.475543	0.271227	1225.648560
9462.034473	0.101440	0.271227	1315.423340
9462.035425	0.100082	0.271227	1410.701172
9462.036328	0.102037	0.271227	1502.840942
9462.037247	0.101880	0.271227	1596.468506
9462.038135	0.100334	0.271227	1685.565552
9462.039076	0.100203	0.271227	1779.856201
9462.039976	0.100990	0.271227	1870.747192
9462.040865	0.101536	0.271227	1961.012329
9462.041804	0.100093	0.271227	2054.999512
9462.042708	0.101045	0.271227	2146.344238
9463.065037	0.705513	0.266594	309.720062
9463.065943	0.254890	0.266594	540.650513
9463.066840	0.249961	0.266594	764.865479
9463.067816	0.487181	0.266594	1240.354492
9463.068726	0.099990	0.266594	1331.345581
9463.069619	0.102986	0.266594	1423.311890
9463.070526	0.101118	0.266594	1515.026123
9463.071450	0.099785	0.266594	1607.227661
9463.072354	0.100961	0.266594	1698.496094
9463.073253	0.103279	0.266594	1791.343750
9463.074189	0.099459	0.266594	1884.437622
9463.075100	0.099478	0.266594	1975.061646
9463.076000	0.102616	0.266594	2067.416016
9463.076886	0.101931	0.266594	2157.727051
9464.071694	0.704114	0.260278	355.577454
9464.072597	0.255081	0.260278	585.915222
9464.073525	0.248416	0.260278	816.444824
9464.074433	0.478605	0.260278	1251.017822
9464.075380	0.100367	0.260278	1346.065796
9464.076288	0.101287	0.260278	1438.034058
9464.077187	0.101232	0.260278	1529.041382
9464.078113	0.100909	0.260278	1622.483521
9464.079027	0.100939	0.260278	1714.741455
9464.079927	0.101371	0.260278	1805.975220
9464.080812	0.102261	0.260278	1896.475952
9464.081771	0.099287	0.260278	1991.692261
9464.082667	0.102239	0.260278	2083.298096
9464.083584	0.101125	0.260278	2176.030273
9465.083339	0.723779	0.291308	316.291565
9465.084296	0.255007	0.291308	560.333557
9465.085211	0.248914	0.291308	788.089478
9465.086118	0.490148	0.291308	1232.653442
9465.087041	0.100305	0.291308	1325.235107
9465.087952	0.099749	0.291308	1416.106079
9465.088852	0.101481	0.291308	1507.438721
9465.089753	0.102312	0.291308	1599.621826
9465.090686	0.099683	0.291308	1692.625732
9465.091592	0.099562	0.291308	1782.828735
9465.092495	0.101598	0.291308	1874.571655
9465.093384	0.100931	0.291308	1964.299683
9465.094327	0.099042	0.291308	2057.696045
9465.095232	0.100430	0.291308	2148.584961
9466.124796	0.638756	0.258820	311.074219
9466.125714	0.255161	0.258820	545.312134
9466.126642	0.248558	0.258820	775.974304
9466.127542	0.485314	0.258820	1212.756592
9466.128499	0.100085	0.258820	1308.538330
9466.129391	0.101576	0.258820	1399.144043
9466.130278	0.101785	0.258820	1489.427002
9466.131215	0.100316	0.258820	1583.423218
9466.132128	0.101199	0.258820	1675.817627
9466.133029	0.101202	0.258820	1767.000977
9466.133918	0.101100	0.258820	1856.878784
9466.134854	0.099445	0.258820	1949.958862
9466.135758	0.101320	0.258820	2041.551758
9466.136680	0.101616	0.258820	2135.241943
9467.109834	0.718008	0.278965	315.205414
9467.110813	0.255560	0.278965	565.398926
9467.111730	0.248851	0.278965	793.595581
9467.112637	0.481736	0.278965	1230.530029
9467.113573	0.099829	0.278965	1323.970093
9467.114481	0.099657	0.278965	1414.458618
9467.115384	0.101591	0.278965	1506.194946
9467.116279	0.102448	0.278965	1597.885498
9467.117216	0.099408	0.278965	1691.030762
9467.118122	0.099500	0.278965	1781.177368
9467.119024	0.101521	0.278965	1872.749268
9467.119911	0.100701	0.278965	1962.070801
9467.120854	0.099357	0.278965	2055.764160
9467.121764	0.100466	0.278965	2147.188477
9468.157388	0.704689	0.288951	312.177094
9468.158371	0.255040	0.288951	562.881714
9468.159286	0.248394	0.288951	790.161804
9468.160184	0.481564	0.288951	1222.605957
9468.161123	0.100334	0.288951	1316.820068
9468.162024	0.101272	0.288951	1408.066162
9468.162945	0.101407	0.288951	1501.462402
9468.163833	0.101777	0.288951	1591.840698
9468.164784	0.099415	0.288951	1686.384644
9468.165690	0.101492	0.288951	1778.336182
9468.166613	0.101484	0.288951	1872.006226
9468.167499	0.100452	0.288951	1961.006348
9468.168446	0.100243	0.288951	2055.936279
9468.169354	0.100009	0.288951	2146.744141
9469.159889	0.704912	0.260495	315.800629
9469.160866	0.255253	0.260495	565.182495
9469.161782	0.248434	0.260495	792.747925
9469.162688	0.486881	0.260495	1233.862183
9469.163624	0.099635	0.260495	1327.120605
9469.164524	0.099789	0.260495	1416.930542
9469.165426	0.101298	0.260495	1508.301025
9469.166316	0.100605	0.260495	1597.839844
9469.167265	0.099280	0.260495	1692.056396
9469.168174	0.100316	0.260495	1783.243774
9469.169070	0.101814	0.260495	1874.469116
9469.169978	0.100093	0.260495	1965.353394
9469.170895	0.099181	0.260495	2056.302246
9469.171805	0.100840	0.260495	2148.066406
9470.173643	0.718817	0.299196	316.279541
9470.174613	0.255033	0.299196	563.661499
9470.175521	0.248306	0.299196	789.123047
9470.176454	0.486021	0.299196	1242.580200
9470.177347	0.099745	0.299196	1331.652344
9470.178278	0.100928	0.299196	1425.616089
9470.179176	0.100807	0.299196	1516.140625
9470.180069	0.101869	0.299196	1607.109497
9470.181006	0.099386	0.299196	1700.234131
9470.181911	0.100408	0.299196	1791.103149
9470.182836	0.102133	0.299196	1885.575806
9470.183724	0.102484	0.299196	1976.581665
9470.184664	0.099313	0.299196	2069.935547
9470.185571	0.101349	0.299196	2161.858887
9471.207909	0.661223	0.271847	302.840210
9471.208807	0.254930	0.271847	531.767700
9471.209731	0.249137	0.271847	761.970215
9471.210667	0.455999	0.271847	1188.784790
9471.211566	0.100298	0.271847	1278.952515
9471.212461	0.102766	0.271847	1370.928223
9471.213392	0.100031	0.271847	1464.056641
9471.214295	0.099573	0.271847	1553.970825
9471.215197	0.101902	0.271847	1645.886353
9471.216083	0.101305	0.271847	1735.642578
9471.217032	0.099181	0.271847	1829.765259
9471.217937	0.100477	0.271847	1920.697266
9471.218835	0.101400	0.271847	2011.754639
9471.219752	0.100353	0.271847	2103.778076
9472.211409	0.692391	0.271448	308.806549
9472.212310	0.254938	0.271448	538.505432
9472.213247	0.249390	0.271448	772.183533
9472.214168	0.485442	0.271448	1219.275513
9472.215063	0.100525	0.271448	1309.245361
9472.215953	0.101320	0.271448	1399.419800
9472.216915	0.099503	0.271448	1495.141846
9472.217812	0.100745	0.271448	1585.509766
9472.218710	0.101624	0.271448	1676.767700
9472.219622	0.100250	0.271448	1768.195923
9472.220546	0.099218	0.271448	1859.872925
9472.221450	0.100554	0.271448	1950.773926
9472.222352	0.101396	0.271448	2042.233521
9472.223277	0.102085	0.271448	2136.662109
9473.230304	0.678955	0.300311	306.208740
9473.231224	0.255106	0.300311	540.906433
9473.232126	0.249390	0.300311	765.855896
9473.233085	0.451483	0.300311	1198.828247
9473.233984	0.098719	0.300311	1287.577026
9473.234888	0.101821	0.300311	1379.623535
9473.235777	0.100792	0.300311	1469.227783
9473.236724	0.099448	0.300311	1563.405273
9473.237626	0.100327	0.300311	1653.900391
9473.238528	0.101891	0.300311	1745.805908
9473.239417	0.101224	0.300311	1835.794434
9473.240360	0.099243	0.300311	1929.380737
9473.241279	0.101085	0.300311	2022.278076
9473.242170	0.102242	0.300311	2113.375977
9474.264557	0.680292	0.269918	315.655396
9474.265462	0.255055	0.269918	546.480103
9474.266362	0.249434	0.269918	770.970337
9474.267312	0.479052	0.269918	1226.069336
9474.268218	0.100217	0.269918	1316.866211
9474.269150	0.102832	0.269918	1412.705688
9474.270043	0.101752	0.269918	1503.569946
9474.270996	0.100477	0.269918	1599.324829
9474.271902	0.100653	0.269918	1690.516479
9474.272795	0.101960	0.269918	1781.567139
9474.273724	0.100686	0.269918	1875.104492
9474.274640	0.101093	0.269918	1967.705200
9474.275531	0.101418	0.269918	2058.069092
9474.276425	0.101576	0.269918	2148.877930
9475.252743	0.718151	0.284524	356.202698
9475.253669	0.255033	0.284524	592.363220
9475.254586	0.248265	0.284524	820.022583
9475.255488	0.477986	0.284524	1251.165771
9475.256428	0.099038	0.284524	1344.261597
9475.257335	0.100485	0.284524	1435.401123
9475.258241	0.102294	0.284524	1528.079224
9475.259127	0.101393	0.284524	1617.913330
9475.260078	0.099712	0.284524	1712.739380
9475.260973	0.099939	0.284524	1802.184814
9475.261866	0.101792	0.284524	1893.085083
9475.262798	0.099792	0.284524	1986.091675
9475.263711	0.098936	0.284524	2076.419922
9475.264606	0.100009	0.284524	2165.927490
9476.300255	0.701290	0.292392	313.476746
9476.301157	0.254886	0.292392	543.384338
9476.302096	0.249261	0.292392	777.440857
9476.303016	0.410145	0.292392	1154.774414
9476.303943	0.099496	0.292392	1247.007080
9476.304854	0.102568	0.292392	1340.446899
9476.305747	0.102184	0.292392	1431.697021
9476.306674	0.099789	0.292392	1524.201294
9476.307582	0.100466	0.292392	1615.424683
9476.308481	0.102184	0.292392	1707.287964
9476.309369	0.100620	0.292392	1796.638672
9476.310314	0.099316	0.292392	1890.492676
9476.311208	0.101221	0.292392	1980.984009
9476.312102	0.101620	0.292392	2071.832275
9477.298637	0.707366	0.261958	311.240906
9477.299609	0.255172	0.261958	559.268188
9477.300513	0.248771	0.261958	784.156921
9477.301427	0.484493	0.261958	1226.983887
9477.302319	0.099961	0.261958	1316.149048
9477.303270	0.099650	0.261958	1410.915894
9477.304170	0.101008	0.261958	1501.823364
9477.305064	0.101349	0.261958	1592.429199
9477.305994	0.100184	0.261958	1685.600586
9477.306900	0.100045	0.261958	1776.241455
9477.307802	0.102521	0.261958	1868.715210
9477.308692	0.102664	0.261958	1960.085815
9477.309630	0.099243	0.261958	2053.175781
9477.310533	0.099690	0.261958	2143.195801
9478.321605	0.722941	0.307019	314.479187
9478.322576	0.254894	0.307019	561.981079
9478.323484	0.248921	0.307019	788.001221
9478.324398	0.480395	0.307019	1227.082764
9478.325286	0.101503	0.307019	1317.217163
9478.326221	0.099785	0.307019	1410.516235
9478.327126	0.100657	0.307019	1501.610596
9478.328029	0.101415	0.307019	1593.188110
9478.328918	0.100367	0.307019	1682.414795
9478.329856	0.099082	0.307019	1775.353760
9478.330769	0.099803	0.307019	1866.474365
9478.331663	0.100957	0.307019	1956.729980
9478.332601	0.099763	0.307019	2050.307861
9478.333504	0.098679	0.307019	2139.415283
9479.347661	0.728335	0.274691	319.010712
9479.348557	0.254758	0.274691	547.274170
9479.349503	0.249397	0.274691	783.203735
9479.350427	0.479832	0.274691	1226.568115
9479.351331	0.101115	0.274691	1317.975586
9479.352240	0.100514	0.274691	1409.342773
9479.353165	0.099650	0.274691	1501.518677
9479.354073	0.101411	0.274691	1593.599976
9479.354964	0.102111	0.274691	1684.580566
9479.355898	0.099521	0.274691	1777.533691
9479.356799	0.099346	0.274691	1867.044189
9479.357699	0.101667	0.274691	1958.544922
9479.358593	0.100243	0.274691	2048.162109
9479.359554	0.099159	0.274691	2143.453857
9480.349186	0.620065	0.285423	307.552094
9480.350101	0.255300	0.285423	541.151855
9480.351006	0.248811	0.285423	766.325806
9480.351908	0.484314	0.285423	1203.177002
9480.352851	0.098881	0.285423	1296.421387
9480.353760	0.100580	0.285423	1387.848389
9480.354656	0.102393	0.285423	1479.592163
9480.355594	0.100459	0.285423	1573.822632
9480.356498	0.099565	0.285423	1663.829834
9480.357400	0.102817	0.285423	1756.571167
9480.358289	0.101843	0.285423	1847.109863
9480.359225	0.099510	0.285423	1940.251709
9480.360134	0.099415	0.285423	2030.620239
9480.361037	0.101642	0.285423	2122.402832
9481.381322	0.714320	0.289475	315.015137
9481.382281	0.254865	0.289475	559.430176
9481.383198	0.248767	0.289475	787.549561
9481.384112	0.482607	0.289475	1228.652710
9481.385003	0.101792	0.289475	1319.349365
9481.385963	0.099390	0.289475	1414.763428
9481.386863	0.100573	0.289475	1505.278687
9481.387769	0.101836	0.289475	1597.541992
9481.388671	0.100492	0.289475	1688.185669
9481.389603	0.099324	0.289475	1780.755371
9481.390512	0.101393	0.289475	1872.921509
9481.391402	0.102085	0.289475	1963.777100
9481.392339	0.099646	0.289475	2057.145508
9481.393245	0.099272	0.289475	2147.086426
9482.394070	0.704026	0.272036	310.475433
9482.394967	0.254414	0.272036	538.684814
9482.395932	0.248789	0.272036	778.766235
9482.396859	0.461481	0.272036	1206.558838
9482.397752	0.100847	0.272036	1296.615356
9482.398691	0.100056	0.272036	1390.568115
9482.399598	0.099445	0.272036	1480.764404
9482.400510	0.101708	0.272036	1573.521851
9482.401402	0.101543	0.272036	1664.098145
9482.402331	0.099174	0.272036	1756.230347
9482.403235	0.099174	0.272036	1845.883301
9482.404136	0.101309	0.272036	1937.162354
9482.405024	0.100023	0.272036	2025.982910
9482.405983	0.099023	0.272036	2120.946289
9483.406805	0.691761	0.300428	309.909149
9483.407704	0.255081	0.300428	539.226562
9483.408649	0.249496	0.300428	775.000122
9483.409570	0.479758	0.300428	1216.857422
9483.410471	0.101462	0.300428	1308.275024
9483.411366	0.102070	0.300428	1399.627930
9483.412310	0.099855	0.300428	1493.890747
9483.413214	0.100375	0.300428	1584.629517
9483.414114	0.102352	0.300428	1676.746582
9483.415001	0.100573	0.300428	1765.954346
9483.415944	0.098936	0.300428	1859.250610
9483.416853	0.100225	0.300428	1950.354736
9483.417750	0.102081	0.300428	2041.921631
9483.418682	0.099514	0.300428	2134.668945
9484.439004	0.678234	0.278941	302.492187
9484.439926	0.254883	0.278941	537.494141
9484.440831	0.249386	0.278941	763.188477
9484.441777	0.378274	0.278941	1121.035645
9484.442701	0.099097	0.278941	1212.600952
9484.443608	0.101210	0.278941	1304.398193
9484.444501	0.102081	0.278941	1395.556763
9484.445453	0.099895	0.278941	1490.656860
9484.446351	0.099661	0.278941	1580.152100
9484.447246	0.101803	0.278941	1671.265747
9484.448133	0.101869	0.278941	1761.623413
9484.449083	0.098939	0.278941	1855.615601
9484.449991	0.099910	0.278941	1946.333618
9484.450888	0.101858	0.278941	2037.700195
9485.433296	0.694600	0.305190	309.096802
9485.434199	0.254700	0.305190	539.090637
9485.435145	0.249060	0.305190	774.701477
9485.436072	0.481670	0.305190	1221.209473
9485.436974	0.102517	0.305190	1313.679932
9485.437859	0.101829	0.305190	1403.798218
9485.438820	0.099697	0.305190	1499.607300
9485.439711	0.100214	0.305190	1588.897583
9485.440617	0.102316	0.305190	1681.595581
9485.441503	0.100492	0.305190	1770.631470
9485.442445	0.099258	0.305190	1864.132324
9485.443345	0.100573	0.305190	1954.647583
9485.444246	0.101722	0.305190	2046.299438
9485.445186	0.099840	0.305190	2140.149170
9486.476759	0.687019	0.284569	309.158539
9486.477660	0.254707	0.284569	538.649597
9486.478604	0.248947	0.284569	773.655090
9486.479532	0.490873	0.284569	1229.185059
9486.480436	0.102513	0.284569	1321.857178
9486.481326	0.100964	0.284569	1411.715454
9486.482277	0.099653	0.284569	1506.485718
9486.483185	0.101202	0.284569	1598.377441
9486.484078	0.101477	0.284569	1688.996460
9486.485015	0.099803	0.284569	1782.512329
9486.485913	0.099042	0.284569	1871.451782
9486.486809	0.101008	0.284569	1961.955200
9486.487704	0.101572	0.284569	2052.862305
9486.488638	0.098969	0.284569	2145.298828
9487.464982	0.721047	0.288778	370.618347
9487.465890	0.255161	0.288778	602.304687
9487.466797	0.248492	0.288778	827.687317
9487.467699	0.469980	0.288778	1251.609619
9487.468638	0.098694	0.288778	1344.283203
9487.469553	0.100378	0.288778	1436.129395
9487.470468	0.101210	0.288778	1528.736328
9487.471357	0.100594	0.288778	1618.164795
9487.472307	0.099364	0.288778	1712.560547
9487.473216	0.100562	0.288778	1803.970947
9487.474111	0.101909	0.288778	1895.179687
9487.475054	0.099880	0.288778	1989.366821
9487.475947	0.098954	0.288778	2077.732666
9487.476850	0.101272	0.288778	2169.181152
9488.513525	0.719806	0.281777	346.226624
9488.514424	0.254960	0.281777	575.435425
9488.515320	0.249082	0.281777	798.612915
9488.516283	0.462323	0.281777	1243.829956
9488.517186	0.101107	0.281777	1335.129761
9488.518076	0.101730	0.281777	1425.669189
9488.519007	0.100441	0.281777	1519.179443
9488.519902	0.100906	0.281777	1609.490112
9488.520827	0.101554	0.281777	1703.427490
9488.521713	0.101301	0.281777	1793.180420
9488.522654	0.099382	0.281777	1886.699219
9488.523558	0.100880	0.281777	1977.894897
9488.524469	0.102429	0.281777	2071.208008
9488.525366	0.100587	0.281777	2161.434570
9489.499629	0.646223	0.281914	306.955994
9489.500527	0.255278	0.281914	536.195923
9489.501476	0.248665	0.281914	772.178589
9489.502402	0.480256	0.281914	1216.895996
9489.503301	0.101060	0.281914	1307.748535
9489.504195	0.102327	0.281914	1399.228516
9489.505141	0.099617	0.281914	1493.465942
9489.506046	0.100829	0.281914	1584.716064
9489.506952	0.101832	0.281914	1676.976074
9489.507850	0.100415	0.281914	1767.148804
9489.508773	0.099452	0.281914	1858.942871
9489.509681	0.100507	0.281914	1950.202881
9489.510569	0.101257	0.281914	2040.119385
9489.511508	0.099767	0.281914	2133.800537
9490.550218	0.732708	0.277491	317.262360
9490.551148	0.254469	0.277491	553.918518
9490.552074	0.249075	0.277491	784.561707
9490.553009	0.465388	0.277491	1219.699707
9490.553899	0.100558	0.277491	1309.196167
9490.554831	0.099789	0.277491	1402.199341
9490.555734	0.100250	0.277491	1492.725342
9490.556635	0.102015	0.277491	1584.641235
9490.557523	0.101243	0.277491	1674.544678
9490.558484	0.099478	0.277491	1770.142578
9490.559389	0.100210	0.277491	1860.832642
9490.560288	0.102184	0.277491	1952.695923
9490.561211	0.099968	0.277491	2044.966675
9490.562115	0.099188	0.277491	2134.632812
9491.534282	0.715334	0.284810	314.031830
9491.535267	0.255579	0.284810	565.776733
9491.536186	0.248778	0.284810	794.403809
9491.537083	0.482827	0.284810	1227.499756
9491.538016	0.098939	0.284810	1319.810059
9491.538919	0.099653	0.284810	1409.796997
9491.539822	0.101580	0.284810	1501.523315
9491.540712	0.101521	0.284810	1591.876953
9491.541663	0.099576	0.284810	1686.574097
9491.542570	0.100389	0.284810	1777.627319
9491.543466	0.102290	0.284810	1869.279175
9491.544377	0.099888	0.284810	1960.276855
9491.545300	0.099071	0.284810	2051.719482
9491.546204	0.101038	0.284810	2143.057373
9492.583886	0.721018	0.275859	316.526917
9492.584850	0.254974	0.275859	562.322205
9492.585761	0.248877	0.275859	789.049072
9492.586669	0.465289	0.275859	1211.531738
9492.587584	0.100389	0.275859	1303.388062
9492.588506	0.099536	0.275859	1395.160400
9492.589415	0.100616	0.275859	1486.620728
9492.590316	0.101924	0.275859	1578.454102
9492.591243	0.099785	0.275859	1670.954956
9492.592153	0.099540	0.275859	1761.536133
9492.593053	0.101316	0.275859	1852.720459
9492.593943	0.100682	0.275859	1942.327759
9492.594888	0.099104	0.275859	2035.981079
9492.595791	0.099346	0.275859	2125.690186
9493.570004	0.729141	0.293105	327.384155
9493.570899	0.254802	0.293105	555.432190
9493.571874	0.248979	0.293105	798.187195
9493.572782	0.462231	0.293105	1217.893311
9493.573697	0.100492	0.293105	1309.843384
9493.574598	0.101591	0.293105	1401.376465
9493.575545	0.100382	0.293105	1496.438232
9493.576453	0.101177	0.293105	1588.306763
9493.577342	0.101664	0.293105	1678.685913
9493.578269	0.099719	0.293105	1771.125610
9493.579177	0.100664	0.293105	1862.528564
9493.580070	0.101605	0.293105	1953.262085
9493.580960	0.100983	0.293105	2043.136719
9493.581903	0.098947	0.293105	2136.443359
9494.619607	0.701082	0.274163	314.084534
9494.620501	0.254956	0.274163	542.015259
9494.621477	0.248976	0.274163	785.015686
9494.622406	0.477448	0.274163	1228.564453
9494.623296	0.102228	0.274163	1319.547119
9494.624237	0.100470	0.274163	1414.089355
9494.625136	0.099833	0.274163	1503.838989
9494.626032	0.101481	0.274163	1594.765747
9494.626925	0.101613	0.274163	1685.505737
9494.627867	0.099474	0.274163	1779.210083
9494.628767	0.099954	0.274163	1869.168335
9494.629672	0.102323	0.274163	1961.770630
9494.630558	0.100745	0.274163	2051.030273
9494.631512	0.099133	0.274163	2145.603516
9495.607802	0.590511	0.296392	279.902435
9495.608720	0.255531	0.296392	514.479858
9495.609629	0.249250	0.296392	741.048523
9495.610528	0.478700	0.296392	1171.399780
9495.611472	0.099104	0.296392	1264.953979
9495.612378	0.101298	0.296392	1356.729614
9495.613265	0.101799	0.296392	1447.025635
9495.614197	0.100005	0.296392	1540.230225
9495.615108	0.099598	0.296392	1630.964355
9495.616016	0.100671	0.296392	1722.374023
9495.616906	0.100499	0.296392	1811.818359
9495.617845	0.098936	0.296392	1904.718872
9495.618747	0.099229	0.296392	1994.223022
9495.619650	0.101107	0.296392	2085.522705
9496.650190	0.718619	0.277869	315.473907
9496.651086	0.255114	0.277869	544.055603
9496.652074	0.249078	0.277869	790.145020
9496.652980	0.465300	0.277869	1211.707031
9496.653872	0.100521	0.277869	1301.371948
9496.654810	0.100525	0.277869	1395.664307
9496.655723	0.101243	0.277869	1488.098877
9496.656627	0.100942	0.277869	1579.350830
9496.657518	0.101052	0.277869	1669.388428
9496.658459	0.099836	0.277869	1763.334473
9496.659375	0.100854	0.277869	1855.717163
9496.660297	0.102517	0.277869	1950.237915
9496.661186	0.100917	0.277869	2039.952881
9496.662144	0.100265	0.277869	2136.006592
9497.648606	0.677878	0.297886	307.078918
9497.649510	0.254971	0.297886	537.572449
9497.650438	0.249152	0.297886	768.785156
9497.651375	0.487240	0.297886	1225.329102
9497.652281	0.099954	0.297886	1315.887085
9497.653183	0.101385	0.297886	1407.336792
9497.654124	0.099664	0.297886	1501.120850
9497.655029	0.099675	0.297886	1591.327026
9497.655929	0.101323	0.297886	1682.517944
9497.656819	0.100906	0.297886	1772.324097
9497.657763	0.099272	0.297886	1866.037354
9497.658669	0.099913	0.297886	1956.558838
9497.659568	0.102177	0.297886	2048.415527
9497.660495	0.100148	0.297886	2141.252441
9498.676684	0.712852	0.280589	312.941833
9498.677656	0.255231	0.280589	561.026123
9498.678571	0.248419	0.280589	788.329651
9498.679481	0.478813	0.280589	1224.049927
9498.680419	0.100140	0.280589	1317.981567
9498.681332	0.099943	0.280589	1409.229248
9498.682240	0.101177	0.280589	1501.097778
9498.683129	0.102341	0.280589	1592.079224
9498.684067	0.099598	0.280589	1685.502563
9498.684975	0.099653	0.280589	1775.987793
9498.685876	0.101646	0.280589	1867.570435
9498.686764	0.100265	0.280589	1956.605713
9498.687713	0.099053	0.280589	2050.606689
9498.688621	0.099496	0.280589	2140.948975
9499.692512	0.701107	0.302245	319.704865
9499.693409	0.254890	0.302245	548.341309
9499.694305	0.249470	0.302245	771.866577
9499.695282	0.476946	0.302245	1237.842651
9499.696186	0.100448	0.302245	1328.647705
9499.697077	0.102118	0.302245	1419.634766
9499.698012	0.100953	0.302245	1514.026123
9499.698936	0.101023	0.302245	1607.371338
9499.699851	0.101477	0.302245	1700.222900
9499.700741	0.101078	0.302245	1790.182251
9499.701701	0.099503	0.302245	1885.705322
9499.702603	0.101195	0.302245	1976.983276
9499.703488	0.101744	0.302245	2067.027100
9499.704397	0.099866	0.302245	2157.804932
9500.703184	0.714990	0.301512	318.170624
9500.704158	0.255557	0.301512	567.082764
9500.705071	0.248602	0.301512	794.056641
9500.705979	0.487167	0.301512	1236.404053
9500.706904	0.099536	0.301512	1328.474976
9500.707805	0.099763	0.301512	1418.361572
9500.708713	0.101177	0.301512	1510.230103
9500.709601	0.101920	0.301512	1600.735229
9500.710537	0.099792	0.301512	1694.140991
9500.711443	0.099924	0.301512	1784.672363
9500.712355	0.101605	0.301512	1877.336304
9500.713247	0.100887	0.301512	1967.327881
9500.714196	0.099141	0.301512	2061.412354
9500.715103	0.099668	0.301512	2151.811279
9501.733337	0.686257	0.296122	303.325714
9501.734269	0.254656	0.296122	540.664856
9501.735204	0.248873	0.296122	773.361389
9501.736107	0.468530	0.296122	1196.444214
9501.736994	0.100540	0.296122	1285.622803
9501.737939	0.100455	0.296122	1380.553101
9501.738843	0.100565	0.296122	1471.463989
9501.739758	0.101528	0.296122	1564.362427
9501.740656	0.101191	0.296122	1655.232300
9501.741613	0.100345	0.296122	1751.262939
9501.742519	0.100573	0.296122	1842.381592
9501.743411	0.101158	0.296122	1932.614990
9501.744353	0.100250	0.296122	2027.050781
9501.745263	0.101711	0.296122	2119.608154
9502.739958	0.729609	0.305745	352.401337
9502.740892	0.255652	0.305745	591.180176
9502.741812	0.248646	0.305745	819.934692
9502.742721	0.485577	0.305745	1261.324463
9502.743660	0.099258	0.305745	1354.527588
9502.744562	0.100503	0.305745	1445.181274
9502.745467	0.103418	0.305745	1538.774536
9502.746354	0.101184	0.305745	1628.524780
9502.747294	0.099503	0.305745	1722.057739
9502.748194	0.100085	0.305745	1812.134644
9502.749098	0.101953	0.305745	1904.300293
9502.750027	0.099756	0.305745	1996.973511
9502.750933	0.098789	0.305745	2086.476318
9502.751843	0.101019	0.305745	2178.403809
9503.761871	0.720136	0.280460	318.299896
9503.762765	0.254447	0.280460	545.775513
9503.763739	0.248785	0.280460	788.092468
9503.764670	0.480509	0.280460	1235.446289
9503.765562	0.101136	0.280460	1325.660034
9503.766471	0.100122	0.280460	1416.671021
9503.767401	0.099606	0.280460	1509.304321
9503.768315	0.101342	0.280460	1601.930542
9503.769214	0.101041	0.280460	1692.766602
9503.770142	0.099602	0.280460	1785.197266
9503.771047	0.099467	0.280460	1875.214478
9503.771947	0.101583	0.280460	1966.639404
9503.772835	0.100917	0.280460	2056.253418
9503.773783	0.098881	0.280460	2149.992187
9504.783826	0.728650	0.312823	322.063232
9504.784789	0.254934	0.312823	567.564758
9504.785701	0.248390	0.312823	794.096313
9504.786631	0.474448	0.312823	1235.333252
9504.787526	0.099639	0.312823	1324.509888
9504.788476	0.101649	0.312823	1421.076660
9504.789402	0.102158	0.312823	1515.675171
9504.790290	0.101631	0.312823	1605.923340
9504.791232	0.100909	0.312823	1700.979980
9504.792151	0.100283	0.312823	1793.140259
9504.793073	0.101331	0.312823	1886.567017
9504.793962	0.101646	0.312823	1976.929932
9504.794914	0.101261	0.312823	2073.330322
9504.795824	0.100291	0.312823	2164.594727
9505.785295	0.690784	0.294833	307.398743
9505.786195	0.254810	0.294833	536.727356
9505.787169	0.249159	0.294833	779.408142
9505.788091	0.463224	0.294833	1206.500610
9505.788982	0.101444	0.294833	1296.887329
9505.789922	0.099943	0.294833	1390.833374
9505.790826	0.099664	0.294833	1480.929932
9505.791724	0.101671	0.294833	1572.230591
9505.792613	0.101488	0.294833	1662.453491
9505.793569	0.099419	0.294833	1757.498047
9505.794475	0.100312	0.294833	1848.381104
9505.795371	0.102444	0.294833	1940.170776
9505.796290	0.100034	0.294833	2032.102173
9505.797206	0.099199	0.294833	2122.968750
9506.829823	0.648065	0.308952	318.848053
9506.830741	0.255264	0.308952	553.180054
9506.831647	0.249086	0.308952	778.851685
9506.832548	0.480557	0.308952	1211.833252
9506.833505	0.098965	0.308952	1306.542603
9506.834402	0.100122	0.308952	1396.352051
9506.835303	0.101715	0.308952	1487.997314
9506.836224	0.100375	0.308952	1580.442505
9506.837136	0.099280	0.308952	1670.985718
9506.838040	0.100356	0.308952	1761.708008
9506.838940	0.101005	0.308952	1852.612183
9506.839874	0.099075	0.308952	1945.147949
9506.840778	0.099382	0.308952	2034.989624
9506.841678	0.101854	0.308952	2126.658447
9507.815896	0.686539	0.293656	305.509979
9507.816796	0.254542	0.293656	534.598022
9507.817754	0.248690	0.293656	772.843201
9507.818661	0.484310	0.293656	1212.112549
9507.819581	0.100829	0.293656	1304.875122
9507.820467	0.100558	0.293656	1393.969360
9507.821412	0.101224	0.293656	1489.626343
9507.822330	0.101825	0.293656	1583.101685
9507.823229	0.101030	0.293656	1673.927856
9507.824161	0.101316	0.293656	1768.354248
9507.825089	0.101001	0.293656	1862.083130
9507.826014	0.101235	0.293656	1955.725830
9507.826904	0.102041	0.293656	2046.542358
9507.827848	0.101063	0.293656	2141.946045
9508.858315	0.704762	0.288722	310.095276
9508.859212	0.254685	0.288722	538.547791
9508.860192	0.248914	0.288722	782.483093
9508.861116	0.472837	0.288722	1219.384399
9508.862006	0.101111	0.288722	1309.373047
9508.862936	0.099932	0.288722	1402.309448
9508.863838	0.099902	0.288722	1492.421387
9508.864741	0.102762	0.288722	1585.215820
9508.865632	0.101364	0.288722	1675.530762
9508.866578	0.099423	0.288722	1769.584595
9508.867483	0.099987	0.288722	1860.072510
9508.868383	0.101653	0.288722	1951.560059
9508.869287	0.100052	0.288722	2042.007568
9508.870201	0.098683	0.288722	2132.203613
9509.861865	0.716363	0.306309	335.974487
9509.862773	0.255227	0.306309	567.720642
9509.863723	0.249111	0.306309	804.376404
9509.864635	0.479308	0.306309	1241.505127
9509.865563	0.102876	0.306309	1336.973999
9509.866454	0.101656	0.306309	1427.549927
9509.867415	0.100305	0.306309	1523.943237
9509.868310	0.102242	0.306309	1615.450195
9509.869197	0.101477	0.306309	1705.460327
9509.870122	0.100961	0.306309	1798.848999
9509.871042	0.100649	0.306309	1891.446411
9509.871950	0.100448	0.306309	1982.653198
9509.872839	0.101686	0.306309	2073.051758
9509.873780	0.098928	0.306309	2166.143311
9510.881741	0.714254	0.302487	313.557556
9510.882730	0.254546	0.302487	565.303467
9510.883635	0.248324	0.302487	790.036682
9510.884548	0.469288	0.302487	1218.496948
9510.885435	0.099825	0.302487	1307.042114
9510.886394	0.099598	0.302487	1402.557007
9510.887307	0.100250	0.302487	1494.085449
9510.888210	0.102092	0.302487	1586.274780
9510.889134	0.100862	0.302487	1679.471069
9510.890052	0.099163	0.302487	1770.502319
9510.890956	0.100441	0.302487	1861.300659
9510.891850	0.101426	0.302487	1951.975342
9510.892790	0.099185	0.302487	2045.208862
9510.893689	0.099170	0.302487	2134.362549
9511.906772	0.673213	0.308030	302.272583
9511.907678	0.254601	0.308030	532.940918
9511.908572	0.249452	0.308030	755.950928
9511.909531	0.485629	0.308030	1221.668823
9511.910436	0.099580	0.308030	1311.788818
9511.911340	0.101609	0.308030	1403.643311
9511.912230	0.102751	0.308030	1495.092163
9511.913181	0.099789	0.308030	1589.991333
9511.914082	0.101700	0.308030	1681.623413
9511.914974	0.102495	0.308030	1773.049072
9511.915924	0.100232	0.308030	1868.269409
9511.916821	0.099141	0.308030	1957.198486
9511.917725	0.100803	0.308030	2048.324707
9511.918613	0.101305	0.308030	2138.283447
9512.913376	0.687883	0.306749	310.923218
9512.914278	0.254623	0.306749	540.593018
9512.915170	0.249419	0.306749	763.074707
9512.916135	0.453365	0.306749	1200.572388
9512.917038	0.099642	0.306749	1290.549438
9512.917937	0.101755	0.306749	1382.027466
9512.918828	0.100272	0.306749	1471.369995
9512.919781	0.099452	0.306749	1566.147705
9512.920687	0.100107	0.306749	1656.844971
9512.921588	0.101177	0.306749	1748.005249
9512.922530	0.099503	0.306749	1841.737183
9512.923432	0.098990	0.306749	1931.026611
9512.924330	0.102092	0.306749	2022.705444
9512.925217	0.100712	0.306749	2112.036621
9513.940446	0.687037	0.284552	310.540894
9513.941346	0.255245	0.284552	540.261719
9513.942305	0.249144	0.284552	779.191040
9513.943234	0.475854	0.284552	1221.259888
9513.944130	0.100997	0.284552	1311.753418
9513.945021	0.102693	0.284552	1403.252808
9513.945963	0.100082	0.284552	1497.529907
9513.946863	0.100100	0.284552	1587.619995
9513.947760	0.103074	0.284552	1680.077148
9513.948644	0.100547	0.284552	1768.960571
9513.949584	0.099408	0.284552	1862.404053
9513.950480	0.100664	0.284552	1952.598999
9513.951380	0.102393	0.284552	2044.752319
9513.952319	0.099910	0.284552	2138.567383
9514.955212	0.714543	0.308771	313.684570
9514.956160	0.255604	0.308771	555.997375
9514.957076	0.249525	0.308771	784.562378
9514.957981	0.486244	0.308771	1224.613037
9514.958866	0.100488	0.308771	1313.545166
9514.959825	0.099961	0.308771	1409.407715
9514.960721	0.102195	0.308771	1500.974243
9514.961612	0.101096	0.308771	1591.050903
9514.962542	0.101107	0.308771	1685.080566
9514.963463	0.100481	0.308771	1777.623535
9514.964366	0.101060	0.308771	1868.880371
9514.965258	0.101664	0.308771	1959.564453
9514.966198	0.099250	0.308771	2052.859863
9514.967102	0.100280	0.308771	2143.512451
9515.964875	0.728591	0.290329	318.394409
9515.965831	0.255231	0.290329	562.395020
9515.966756	0.248705	0.290329	792.446960
9515.967672	0.483453	0.290329	1235.290283
9515.968591	0.099858	0.290329	1327.060181
9515.969511	0.099705	0.290329	1418.788452
9515.970417	0.101063	0.290329	1510.351685
9515.971312	0.102806	0.290329	1602.363403
9515.972249	0.099661	0.290329	1695.745361
9515.973154	0.099313	0.290329	1785.623413
9515.974052	0.101052	0.290329	1876.368286
9515.974940	0.101012	0.290329	1966.066895
9515.975881	0.099174	0.290329	2059.389160
9515.976789	0.100009	0.290329	2150.197021
9517.000147	0.706707	0.318540	315.191101
9517.001044	0.255066	0.318540	543.985229
9517.001939	0.249906	0.318540	767.651123
9517.002920	0.487998	0.318540	1246.377197
9517.003827	0.101096	0.318540	1338.071411
9517.004720	0.102070	0.318540	1429.220215
9517.005641	0.101345	0.318540	1522.559204
9517.006549	0.099767	0.318540	1613.147461
9517.007452	0.101243	0.318540	1704.569580
9517.008341	0.101257	0.318540	1794.587402
9517.009273	0.099628	0.318540	1887.440430
9517.010192	0.100049	0.318540	1979.385254
9517.011098	0.102242	0.318540	2072.016846
9517.011991	0.100851	0.318540	2162.076660
9517.993430	0.692439	0.293370	311.597534
9517.994335	0.254795	0.293370	542.186951
9517.995282	0.249097	0.293370	778.081482
9517.996210	0.479945	0.293370	1223.470459
9517.997113	0.101770	0.293370	1315.368774
9517.998001	0.101730	0.293370	1405.704834
9517.998963	0.099928	0.293370	1501.835571
9517.999865	0.100265	0.293370	1592.274536
9518.000765	0.101810	0.293370	1683.903809
9518.001657	0.101301	0.293370	1774.264526
9518.002588	0.099152	0.293370	1866.574707
9518.003498	0.100085	0.293370	1957.652466
9518.004394	0.101096	0.293370	2048.234619
9518.005327	0.099360	0.293370	2140.937744
9519.042061	0.554224	0.306269	279.882935
9519.042973	0.255220	0.306269	512.643311
9519.043884	0.248577	0.306269	739.096619
9519.044784	0.489130	0.306269	1179.313232
9519.045737	0.099236	0.306269	1273.885010
9519.046644	0.101462	0.306269	1365.911377
9519.047544	0.101624	0.306269	1457.372559
9519.048470	0.100741	0.306269	1550.658691
9519.049372	0.099489	0.306269	1640.397339
9519.050266	0.102169	0.306269	1731.736572
9519.051156	0.100873	0.306269	1821.513428
9519.052108	0.099126	0.306269	1915.881348
9519.053000	0.099595	0.306269	2004.719849
9519.053904	0.101605	0.306269	2096.571045
9520.029161	0.673066	0.290845	309.610535
9520.030075	0.255198	0.290845	542.861267
9520.030983	0.249338	0.290845	769.260498
9520.031935	0.480099	0.290845	1226.314697
9520.032836	0.099218	0.290845	1315.709717
9520.033738	0.102645	0.290845	1408.295776
9520.034628	0.100701	0.290845	1497.919434
9520.035569	0.099639	0.290845	1591.679443
9520.036471	0.100093	0.290845	1681.963135
9520.037360	0.101730	0.290845	1772.400879
9520.038296	0.100411	0.290845	1866.385986
9520.039203	0.099053	0.290845	1956.226807
9520.040110	0.100876	0.290845	2047.721802
9520.041010	0.101012	0.290845	2138.632568
9521.072602	0.691959	0.286796	312.073608
9521.073499	0.255172	0.286796	540.963013
9521.074392	0.250085	0.286796	764.289307
9521.075353	0.492810	0.286796	1237.879761
9521.076260	0.099606	0.286796	1328.222168
9521.077156	0.102268	0.286796	1419.854370
9521.078075	0.100682	0.286796	1512.381470
9521.079011	0.099862	0.286796	1605.852295
9521.079918	0.101843	0.286796	1698.224121
9521.080816	0.102217	0.286796	1790.014771
9521.081765	0.099957	0.286796	1884.874268
9521.082668	0.099492	0.286796	1974.715698
9521.083567	0.101620	0.286796	2066.072021
9521.084453	0.100261	0.286796	2154.903564
9522.068958	0.664442	0.302555	296.341187
9522.069874	0.255308	0.302555	530.202942
9522.070781	0.249888	0.302555	756.851074
9522.071688	0.410076	0.302555	1128.789673
9522.072627	0.098965	0.302555	1221.717651
9522.073535	0.101459	0.302555	1313.842163
9522.074426	0.101364	0.302555	1404.157104
9522.075365	0.100027	0.302555	1498.082275
9522.076278	0.099939	0.302555	1589.326538
9522.077173	0.101660	0.302555	1680.312378
9522.078061	0.100858	0.302555	1769.874390
9522.079002	0.099375	0.302555	1863.386230
9522.079910	0.100635	0.302555	1954.762573
9522.080810	0.101613	0.302555	2046.213867
9523.103182	0.718414	0.294942	316.820709
9523.104076	0.254897	0.294942	544.699036
9523.105030	0.249309	0.294942	782.539917
9523.105949	0.486343	0.294942	1229.488892
9523.106854	0.100708	0.294942	1320.629639
9523.107743	0.101125	0.294942	1410.530151
9523.108700	0.099778	0.294942	1506.017578
9523.109605	0.100811	0.294942	1597.251099
9523.110503	0.101847	0.294942	1688.709595
9523.111433	0.100422	0.294942	1782.102417
9523.112335	0.099507	0.294942	1871.857544
9523.113233	0.101770	0.294942	1963.247070
9523.114120	0.101704	0.294942	2053.458496
9523.115051	0.099375	0.294942	2145.976562
9524.107729	0.701448	0.318382	313.547119
9524.108711	0.255828	0.318382	564.769836
9524.109622	0.248650	0.318382	791.289917
9524.110523	0.487313	0.318382	1230.359131
9524.111468	0.099598	0.318382	1324.479614
9524.112368	0.100060	0.318382	1414.533447
9524.113269	0.102074	0.318382	1506.502075
9524.114152	0.101429	0.318382	1596.064209
9524.115093	0.099620	0.318382	1689.807007
9524.116003	0.100364	0.318382	1781.138062
9524.116905	0.101418	0.318382	1872.617554
9524.117827	0.100726	0.318382	1965.487183
9524.118739	0.099108	0.318382	2055.873291
9524.119645	0.100159	0.318382	2146.617187
9525.134796	0.718828	0.304017	315.565552
9525.135757	0.255330	0.304017	560.937256
9525.136665	0.248983	0.304017	787.013916
9525.137587	0.481329	0.304017	1230.799561
9525.138484	0.100540	0.304017	1320.983521
9525.139446	0.100778	0.304017	1417.931519
9525.140349	0.101466	0.304017	1509.555420
9525.141241	0.102279	0.304017	1600.788330
9525.142184	0.099701	0.304017	1694.806274
9525.143100	0.100935	0.304017	1787.262817
9525.144023	0.101323	0.304017	1880.784180
9525.144913	0.101895	0.304017	1971.470337
9525.145858	0.100118	0.304017	2066.082275
9525.146751	0.101455	0.304017	2156.681641
9526.146508	0.709973	0.327611	310.968231
9526.147405	0.254564	0.327611	539.312317
9526.148376	0.248877	0.327611	780.971802
9526.149302	0.474913	0.327611	1220.741577
9526.150199	0.101364	0.327611	1311.664673
9526.151143	0.100111	0.327611	1406.169556
9526.152045	0.099496	0.327611	1495.914795
9526.152941	0.101708	0.327611	1587.044922
9526.153831	0.100679	0.327611	1676.648926
9526.154766	0.099298	0.327611	1769.492676
9526.155671	0.100173	0.327611	1860.149536
9526.156576	0.101309	0.327611	1951.833862
9526.157465	0.100386	0.327611	2041.076782
9526.158412	0.098947	0.327611	2134.779053
9527.165411	0.659191	0.306797	298.613403
9527.166315	0.254982	0.306797	529.116821
9527.167211	0.249598	0.306797	752.756958
9527.168174	0.486716	0.306797	1221.464722
9527.169082	0.100056	0.306797	1312.315674
9527.169969	0.100748	0.306797	1401.679443
9527.170901	0.100422	0.306797	1495.273071
9527.171809	0.099404	0.306797	1585.532227
9527.172722	0.101777	0.306797	1678.454956
9527.173620	0.100455	0.306797	1768.663818
9527.174547	0.099185	0.306797	1860.607910
9527.175447	0.099437	0.306797	1950.101440
9527.176347	0.101107	0.306797	2041.097900
9527.177236	0.100452	0.306797	2130.399414
9528.181218	0.648322	0.326121	294.337952
9528.182140	0.255143	0.326121	529.579651
9528.183049	0.249108	0.326121	756.018555
9528.183954	0.446096	0.326121	1159.735596
9528.184921	0.098936	0.326121	1255.406250
9528.185829	0.101111	0.326121	1347.214844
9528.186728	0.101960	0.326121	1438.877319
9528.187665	0.099851	0.326121	1532.437744
9528.188569	0.099393	0.326121	1622.289307
9528.189470	0.102118	0.326121	1714.297607
9528.190356	0.101444	0.326121	1804.177124
9528.191283	0.098881	0.326121	1895.839478
9528.192189	0.099847	0.326121	1986.301270
9528.193093	0.101517	0.326121	2078.072998
9529.200076	0.704202	0.301584	307.736145
9529.201036	0.255278	0.301584	552.803345
9529.201950	0.248987	0.301584	780.377319
9529.202857	0.478389	0.301584	1214.275879
9529.203743	0.099694	0.301584	1302.604370
9529.204690	0.099613	0.301584	1396.937866
9529.205601	0.101243	0.301584	1489.169922
9529.206500	0.101364	0.301584	1580.295776
9529.207428	0.099825	0.301584	1672.933838
9529.208336	0.099349	0.301584	1763.143066
9529.209233	0.101975	0.301584	1854.614746
9529.210122	0.101082	0.301584	1944.476196
9529.211080	0.099298	0.301584	2039.603760
9529.211982	0.099686	0.301584	2129.520752
9530.212818	0.682855	0.324513	303.187714
9530.213722	0.255146	0.324513	533.840088
9530.214628	0.249661	0.324513	760.032593
9530.215610	0.477242	0.324513	1228.684570
9530.216513	0.100906	0.324513	1319.802490
9530.217401	0.102316	0.324513	1410.658813
9530.218342	0.099792	0.324513	1504.563477
9530.219256	0.101627	0.324513	1597.450684
9530.220169	0.100964	0.324513	1689.631104
9530.221055	0.100605	0.324513	1778.767578
9530.222012	0.099763	0.324513	1874.240967
9530.222897	0.101155	0.324513	1963.762939
9530.223791	0.101917	0.324513	2054.876221
9530.224720	0.100144	0.324513	2147.909912
9531.236815	0.728463	0.293914	321.980713
9531.237768	0.254930	0.293914	564.929382
9531.238683	0.248613	0.293914	792.410522
9531.239592	0.482073	0.293914	1230.614746
9531.240538	0.099551	0.293914	1324.789795
9531.241443	0.099723	0.293914	1415.039062
9531.242345	0.100763	0.293914	1505.927246
9531.243229	0.101953	0.293914	1596.053833
9531.244163	0.099609	0.293914	1689.088989
9531.245066	0.099954	0.293914	1779.347046
9531.245969	0.101671	0.293914	1871.156128
9531.246857	0.100800	0.293914	1960.666138
9531.247801	0.099210	0.293914	2054.320557
9531.248707	0.100682	0.293914	2145.538818
9532.244445	0.678413	0.318721	304.607483
9532.245360	0.254996	0.318721	537.929138
9532.246262	0.249320	0.318721	762.815857
9532.247227	0.472339	0.318721	1218.622803
9532.248134	0.099038	0.318721	1308.450317
9532.249031	0.101228	0.318721	1399.251831
9532.249920	0.101543	0.318721	1489.523560
9532.250872	0.099576	0.318721	1584.320312
9532.251773	0.099873	0.318721	1674.305908
9532.252673	0.101722	0.318721	1765.856079
9532.253565	0.100155	0.318721	1855.194336
9532.254506	0.098903	0.318721	1948.261719
9532.255413	0.100111	0.318721	2039.062500
9532.256311	0.101071	0.318721	2129.823975
9533.277681	0.604303	0.278824	282.813812
9533.278607	0.255509	0.278824	519.415161
9533.279506	0.249357	0.278824	743.586792
9533.280458	0.480864	0.278824	1201.369629
9533.281369	0.099104	0.278824	1291.653320
9533.282272	0.102810	0.278824	1384.490845
9533.283163	0.101554	0.278824	1474.975464
9533.284119	0.099741	0.278824	1570.328125
9533.285020	0.100107	0.278824	1660.524902
9533.285920	0.101638	0.278824	1751.999268
9533.286815	0.099536	0.278824	1841.084106
9533.287762	0.099181	0.278824	1935.008423
9533.288670	0.100009	0.278824	2025.816162
9533.289566	0.101686	0.278824	2116.926514
9534.276035	0.722922	0.318612	313.025391
9534.277008	0.255227	0.318612	561.361328
9534.277915	0.249243	0.318612	787.424866
9534.278827	0.481333	0.318612	1226.400635
9534.279716	0.101495	0.318612	1316.630005
9534.280652	0.099880	0.318612	1410.118042
9534.281558	0.100887	0.318612	1501.522095
9534.282463	0.101920	0.318612	1593.759888
9534.283361	0.100902	0.318612	1684.369995
9534.284308	0.099196	0.318612	1778.308228
9534.285211	0.100668	0.318612	1869.211182
9534.286101	0.101470	0.318612	1959.519287
9534.287043	0.099609	0.318612	2053.351318
9534.287941	0.098756	0.318612	2142.034180
9535.319505	0.718997	0.280625	315.639496
9535.320452	0.255502	0.280625	557.599609
9535.321364	0.249298	0.280625	784.959473
9535.322274	0.488166	0.280625	1229.190918
9535.323163	0.100192	0.280625	1318.261230
9535.324107	0.099800	0.280625	1412.472290
9535.325013	0.101093	0.280625	1504.062134
9535.325913	0.101949	0.280625	1595.816650
9535.326847	0.100836	0.280625	1689.997681
9535.327750	0.099675	0.280625	1780.004517
9535.328644	0.102191	0.280625	1871.363403
9535.329531	0.101089	0.280625	1961.029175
9535.330465	0.099258	0.280625	2053.736084
9535.331372	0.099752	0.280625	2144.211426
9536.306684	0.729478	0.320783	355.985046
9536.307607	0.255311	0.320783	591.637329
9536.308516	0.248774	0.320783	817.773315
9536.309413	0.470735	0.320783	1240.022461
9536.310353	0.098939	0.320783	1333.025269
9536.311258	0.100272	0.320783	1423.771606
9536.312163	0.102601	0.320783	1516.625732
9536.313051	0.101246	0.320783	1606.532471
9536.314013	0.099635	0.320783	1702.381348
9536.314924	0.100781	0.320783	1794.193115
9536.315816	0.102953	0.320783	1886.027100
9536.316765	0.099401	0.320783	1980.358276
9536.317667	0.098914	0.320783	2069.578369
9536.318561	0.100646	0.320783	2159.555664
9537.359310	0.734531	0.295868	323.193726
9537.360205	0.254897	0.295868	551.326904
9537.361169	0.249247	0.295868	791.600830
9537.362080	0.472625	0.295868	1222.161743
9537.362992	0.101199	0.295868	1314.454956
9537.363890	0.101580	0.295868	1405.673462
9537.364860	0.101221	0.295868	1503.857544
9537.365762	0.102023	0.295868	1595.882080
9537.366656	0.102261	0.295868	1687.303223
9537.367594	0.099459	0.295868	1780.595947
9537.368510	0.102275	0.295868	1874.280151
9537.369423	0.101261	0.295868	1966.731445
9537.370315	0.100309	0.295868	2056.207031
9537.371262	0.099155	0.295868	2150.107178
9538.343437	0.564906	0.317875	284.147705
9538.344352	0.255476	0.317875	517.908325
9538.345256	0.248906	0.317875	742.919556
9538.346155	0.482468	0.317875	1176.658569
9538.347097	0.098983	0.317875	1269.900757
9538.348005	0.101067	0.317875	1361.669434
9538.348905	0.103140	0.317875	1454.495117
9538.349840	0.100247	0.317875	1548.225708
9538.350747	0.099218	0.317875	1638.216064
9538.351646	0.101180	0.317875	1729.177246
9538.352534	0.101067	0.317875	1818.924683
9538.353479	0.098785	0.317875	1912.276855
9538.354380	0.099207	0.317875	2001.661987
9538.355280	0.101583	0.317875	2093.086914
9539.390942	0.673173	0.313963	301.581329
9539.391840	0.254923	0.313963	530.502258
9539.392733	0.249452	0.313963	753.262817
9539.393706	0.488507	0.313963	1228.580200
9539.394614	0.100737	0.313963	1320.049683
9539.395502	0.103246	0.313963	1411.732056
9539.396443	0.100532	0.313963	1506.332886
9539.397347	0.099584	0.313963	1596.356567
9539.398249	0.101089	0.313963	1687.538696
9539.399144	0.102067	0.313963	1778.888306
9539.400097	0.098877	0.313963	1873.118042
9539.400997	0.099624	0.313963	1962.779663
9539.401893	0.100734	0.313963	2053.037109
9539.402778	0.099921	0.313963	2141.466797
9540.384218	0.659205	0.303329	295.983185
9540.385129	0.255220	0.303329	528.488342
9540.386023	0.249489	0.303329	751.531067
9540.386995	0.491536	0.303329	1229.303711
9540.387907	0.101096	0.303329	1321.503418
9540.388800	0.102037	0.303329	1412.622803
9540.389738	0.099899	0.303329	1506.327759
9540.390643	0.099602	0.303329	1596.467651
9540.391548	0.102052	0.303329	1688.824707
9540.392438	0.100876	0.303329	1778.604736
9540.393361	0.099316	0.303329	1870.273804
9540.394264	0.100042	0.303329	1960.611328
9540.395169	0.101415	0.303329	2052.391602
9540.396057	0.100151	0.303329	2141.325928
9541.416449	0.580118	0.324856	286.578491
9541.417371	0.255447	0.324856	522.100464
9541.418279	0.248968	0.324856	748.163879
9541.419180	0.479297	0.324856	1180.010376
9541.420122	0.098767	0.324856	1273.048950
9541.421021	0.100920	0.324856	1363.776367
9541.421918	0.102158	0.324856	1455.412231
9541.422845	0.100488	0.324856	1548.564819
9541.423756	0.099302	0.324856	1639.028687
9541.424648	0.102012	0.324856	1730.023193
9541.425541	0.101561	0.324856	1820.717407
9541.426491	0.099137	0.324856	1914.897461
9541.427394	0.100609	0.324856	2005.747559
9541.428295	0.101495	0.324856	2097.194824
9542.429126	0.708812	0.296239	309.042145
9542.430021	0.254410	0.296239	536.739441
9542.431011	0.248690	0.296239	782.942749
9542.431923	0.483102	0.296239	1223.531616
9542.432815	0.100785	0.296239	1313.431763
9542.433752	0.099781	0.296239	1406.927002
9542.434669	0.100715	0.296239	1499.282959
9542.435587	0.102905	0.296239	1593.750000
9542.436475	0.101385	0.296239	1683.780273
9542.437418	0.099763	0.296239	1777.856934
9542.438316	0.101810	0.296239	1869.282593
9542.439210	0.101027	0.296239	1959.600342
9542.440115	0.099554	0.296239	2049.697021
9542.441049	0.100122	0.296239	2143.210937
9543.441881	0.672773	0.330624	300.056946
9543.442824	0.255333	0.330624	540.836182
9543.443739	0.249086	0.330624	768.749573
9543.444650	0.487614	0.330624	1212.965454
9543.445536	0.100463	0.330624	1301.975342
9543.446495	0.099730	0.330624	1397.616577
9543.447396	0.100452	0.330624	1488.123535
9543.448289	0.101294	0.330624	1578.578979
9543.449227	0.100532	0.330624	1672.878174
9543.450144	0.099152	0.330624	1763.800171
9543.451051	0.100027	0.330624	1854.524536
9543.451946	0.101521	0.330624	1945.385864
9543.452883	0.098738	0.330624	2037.903198
9543.453774	0.098921	0.330624	2126.041748
9544.472011	0.714357	0.304622	313.602570
9544.473003	0.255564	0.304622	567.122070
9544.473930	0.248610	0.304622	797.583191
9544.474832	0.476752	0.304622	1227.613281
9544.475758	0.099921	0.304622	1320.139771
9544.476680	0.099825	0.304622	1412.178833
9544.477586	0.101525	0.304622	1504.160156
9544.478485	0.101902	0.304622	1595.769897
9544.479414	0.099906	0.304622	1688.582520
9544.480319	0.099811	0.304622	1778.911255
9544.481228	0.101078	0.304622	1870.791016
9544.482119	0.100909	0.304622	1960.701294
9544.483067	0.099009	0.304622	2054.561523
9544.483973	0.100016	0.304622	2145.175781
9545.475533	0.703557	0.319160	309.565125
9545.476433	0.254883	0.319160	538.959656
9545.477412	0.249108	0.319160	782.836060
9545.478338	0.478876	0.319160	1226.275024
9545.479234	0.100928	0.319160	1316.706299
9545.480199	0.100305	0.319160	1413.500732
9545.481107	0.102645	0.319160	1506.702637
9545.482038	0.101814	0.319160	1601.491455
9545.482925	0.101067	0.319160	1691.137817
9545.483867	0.100829	0.319160	1786.118652
9545.484770	0.100829	0.319160	1877.167114
9545.485659	0.101777	0.319160	1967.647217
9545.486586	0.099803	0.319160	2060.165039
9545.487510	0.100375	0.319160	2152.911377
9546.505727	0.701968	0.324231	346.772095
9546.506644	0.255399	0.324231	580.973145
9546.507545	0.248950	0.324231	805.277283
9546.508440	0.473108	0.324231	1228.708862
9546.509384	0.098998	0.324231	1322.162842
9546.510284	0.100331	0.324231	1412.460571
9546.511189	0.101689	0.324231	1504.489502
9546.512080	0.100887	0.324231	1594.380249
9546.513033	0.099584	0.324231	1689.283569
9546.513939	0.100975	0.324231	1780.767212
9546.514838	0.102440	0.324231	1872.860962
9546.515764	0.099543	0.324231	1965.038208
9546.516664	0.098943	0.324231	2054.086914
9546.517564	0.101016	0.324231	2145.000977
9547.520470	0.690846	0.309713	310.189850
9547.521374	0.254575	0.309713	540.325806
9547.522320	0.248848	0.309713	775.735718
9547.523251	0.486053	0.309713	1228.251465
9547.524159	0.101642	0.309713	1320.542236
9547.525049	0.102246	0.309713	1411.541260
9547.526006	0.099902	0.309713	1507.147827
9547.526906	0.100001	0.309713	1597.148926
9547.527809	0.101755	0.309713	1689.034058
9547.528700	0.100239	0.309713	1778.347290
9547.529632	0.099283	0.309713	1870.879517
9547.530541	0.100671	0.309713	1962.389771
9547.531439	0.101869	0.309713	2053.868164
9547.532375	0.099792	0.309713	2147.273926
9548.525002	0.728254	0.337577	320.431915
9548.525894	0.254524	0.337577	547.467224
9548.526872	0.248785	0.337577	790.779358
9548.527794	0.467933	0.337577	1222.213867
9548.528685	0.101331	0.337577	1312.499390
9548.529623	0.100613	0.337577	1406.874146
9548.530555	0.101748	0.337577	1501.703369
9548.531459	0.101228	0.337577	1593.213501
9548.532348	0.101737	0.337577	1683.657715
9548.533300	0.099357	0.337577	1778.245239
9548.534216	0.101104	0.337577	1870.856079
9548.535130	0.101005	0.337577	1963.174316
9548.536018	0.100477	0.337577	2052.398193
9548.536967	0.100811	0.337577	2148.067383
9549.565457	0.706033	0.305020	359.370667
9549.566374	0.255015	0.305020	593.219116
9549.567271	0.248503	0.305020	816.126709
9549.568175	0.485541	0.305020	1255.055542
9549.569122	0.098778	0.305020	1348.598389
9549.570025	0.100704	0.305020	1439.534424
9549.570940	0.101180	0.305020	1532.114502
9549.571836	0.100723	0.305020	1622.362061
9549.572778	0.099309	0.305020	1715.911255
9549.573686	0.102081	0.305020	1808.601074
9549.574579	0.101005	0.305020	1898.798218
9549.575510	0.099866	0.305020	1991.773193
9549.576408	0.099053	0.305020	2080.722656
9549.577305	0.103129	0.305020	2173.229004
9550.552539	0.701114	0.321202	316.903748
9550.553457	0.254919	0.321202	550.919800
9550.554351	0.249423	0.321202	773.903564
9550.555304	0.463304	0.321202	1215.432739
9550.556212	0.098445	0.321202	1304.820679
9550.557114	0.102305	0.321202	1397.099487
9550.558009	0.101506	0.321202	1487.947632
9550.558958	0.099565	0.321202	1582.435181
9550.559862	0.099899	0.321202	1672.743652
9550.560765	0.102283	0.321202	1765.104980
9550.561652	0.100371	0.321202	1854.134155
9550.562588	0.099283	0.321202	1947.063477
9550.563498	0.100481	0.321202	2038.501099
9550.564388	0.101638	0.321202	2128.958984
9551.604165	0.733630	0.319808	319.862823
9551.605059	0.254993	0.319808	547.826294
9551.606036	0.249177	0.319808	791.272461
9551.606962	0.465912	0.319808	1222.706787
9551.607855	0.100320	0.319808	1312.292358
9551.608755	0.100419	0.319808	1402.669189
9551.609683	0.100774	0.319808	1496.187378
9551.610591	0.101155	0.319808	1588.035889
9551.611483	0.101854	0.319808	1678.889893
9551.612412	0.100276	0.319808	1772.046143
9551.613320	0.100459	0.319808	1863.262939
9551.614218	0.103517	0.319808	1956.221069
9551.615106	0.101968	0.319808	2046.768433
9551.616049	0.098972	0.319808	2140.099121
9552.591314	0.718239	0.305512	318.179657
9552.592285	0.255205	0.305512	565.983826
9552.593206	0.248529	0.305512	794.879089
9552.594109	0.486442	0.305512	1234.135864
9552.595044	0.100499	0.305512	1328.102661
9552.595945	0.099983	0.305512	1418.187256
9552.596849	0.101862	0.305512	1510.270142
9552.597748	0.101576	0.305512	1601.586914
9552.598679	0.099562	0.305512	1694.278931
9552.599585	0.099441	0.305512	1784.372437
9552.600485	0.101913	0.305512	1876.093994
9552.601372	0.101027	0.305512	1965.704590
9552.602310	0.098877	0.305512	2058.451172
9552.603211	0.099521	0.305512	2148.120117
9553.633757	0.686781	0.335454	306.991119
9553.634657	0.254905	0.335454	536.405396
9553.635623	0.248961	0.335454	776.901917
9553.636543	0.457855	0.335454	1198.128784
9553.637431	0.100854	0.335454	1287.687622
9553.638363	0.100280	0.335454	1381.148193
9553.639273	0.099463	0.335454	1471.659424
9553.640179	0.102312	0.335454	1564.354126
9553.641067	0.101730	0.335454	1654.690186
9553.642016	0.099386	0.335454	1749.007446
9553.642913	0.099525	0.335454	1838.281494
9553.643815	0.101649	0.335454	1929.968994
9553.644701	0.101752	0.335454	2020.120972
9553.645642	0.099089	0.335454	2113.364014
9554.633173	0.692677	0.310036	311.704651
9554.634075	0.254945	0.310036	541.665100
9554.635009	0.249360	0.310036	774.567627
9554.635931	0.485215	0.310036	1221.935791
9554.636828	0.100825	0.310036	1312.375977
9554.637715	0.100613	0.310036	1401.619507
9554.638666	0.099573	0.310036	1496.313232
9554.639567	0.100001	0.310036	1586.414307
9554.640468	0.102125	0.310036	1678.429199
9554.641389	0.100752	0.310036	1771.221802
9554.642323	0.099144	0.310036	1863.822510
9554.643229	0.101327	0.310036	1955.624634
9554.644129	0.100917	0.310036	2046.449707
9554.645068	0.099701	0.310036	2140.068848
9555.659213	0.705743	0.343684	312.644318
9555.660181	0.255242	0.343684	559.718262
9555.661106	0.248650	0.343684	789.719421
9555.662002	0.482227	0.343684	1221.794434
9555.662952	0.100214	0.343684	1316.997314
9555.663850	0.101514	0.343684	1408.156616
9555.664760	0.102078	0.343684	1501.047241
9555.665657	0.100554	0.343684	1591.244385
9555.666608	0.100880	0.343684	1687.181396
9555.667526	0.100854	0.343684	1779.765869
9555.668423	0.101239	0.343684	1870.577271
9555.669368	0.099089	0.343684	1964.216675
9555.670271	0.100638	0.343684	2055.093262
9555.671193	0.100854	0.343684	2148.081055
9556.673995	0.728339	0.309198	316.098969
9556.674932	0.255238	0.309198	555.257019
9556.675851	0.249148	0.309198	784.223999
9556.676770	0.490514	0.309198	1235.006348
9556.677656	0.100045	0.309198	1323.646362
9556.678609	0.099939	0.309198	1418.888184
9556.679512	0.100734	0.309198	1509.850708
9556.680403	0.101587	0.309198	1600.364624
9556.681344	0.100181	0.309198	1694.634644
9556.682240	0.099412	0.309198	1783.707520
9556.683138	0.101506	0.309198	1874.860229
9556.684032	0.100862	0.309198	1965.030640
9556.684967	0.098844	0.309198	2057.449707
9556.685872	0.099166	0.309198	2147.195068
9557.686746	0.686902	0.334516	307.045135
9557.687638	0.254674	0.334516	534.214417
9557.688609	0.248895	0.334516	775.891724
9557.689538	0.460635	0.334516	1203.821411
9557.690426	0.100983	0.334516	1293.494019
9557.691370	0.100009	0.334516	1387.902100
9557.692275	0.099979	0.334516	1478.383301
9557.693183	0.101770	0.334516	1570.790527
9557.694074	0.101689	0.334516	1661.395874
9557.695023	0.099456	0.334516	1755.779175
9557.695928	0.100309	0.334516	1846.558716
9557.696832	0.101470	0.334516	1938.287354
9557.697738	0.099858	0.334516	2028.759033
9557.698663	0.099053	0.334516	2120.382812
9558.713806	0.722025	0.299848	314.802979
9558.714706	0.254425	0.299848	543.785522
9558.715654	0.248815	0.299848	779.661865
9558.716578	0.486442	0.299848	1229.133911
9558.717506	0.101067	0.299848	1322.923950
9558.718393	0.100671	0.299848	1412.219482
9558.719359	0.100298	0.299848	1509.107178
9558.720259	0.101927	0.299848	1600.841919
9558.721147	0.101525	0.299848	1690.995850
9558.722092	0.100012	0.299848	1785.507324
9558.723013	0.101349	0.299848	1878.849609
9558.723929	0.101429	0.299848	1971.759033
9558.724816	0.101832	0.299848	2062.084229
9558.725752	0.099734	0.299848	2155.435059
9559.718361	0.664113	0.320022	296.858307
9559.719285	0.255092	0.320022	532.562866
9559.720180	0.249584	0.320022	755.940308
9559.721137	0.458569	0.320022	1194.791138
9559.722028	0.098800	0.320022	1282.822021
9559.722923	0.101444	0.320022	1373.614502
9559.723814	0.102587	0.320022	1465.019287
9559.724754	0.099558	0.320022	1558.603882
9559.725658	0.100206	0.320022	1649.190430
9559.726562	0.101206	0.320022	1740.680664
9559.727455	0.100250	0.320022	1830.204102
9559.728394	0.099390	0.320022	1923.531006
9559.729304	0.100708	0.320022	2015.175293
9559.730193	0.101521	0.320022	2105.427490
9560.751578	0.686898	0.302805	308.417267
9560.752495	0.255172	0.302805	542.410095
9560.753391	0.249554	0.302805	766.010864
9560.754354	0.478704	0.302805	1227.002441
9560.755264	0.099309	0.302805	1317.373657
9560.756172	0.101371	0.302805	1409.418335
9560.757064	0.101180	0.302805	1499.671265
9560.758010	0.099727	0.302805	1594.012573
9560.758915	0.100192	0.302805	1684.686035
9560.759822	0.101851	0.302805	1777.064575
9560.760714	0.100803	0.302805	1866.981079
9560.761646	0.099467	0.302805	1959.683960
9560.762553	0.100375	0.302805	2050.723877
9560.763439	0.102385	0.302805	2141.437256
9561.755099	0.664325	0.318555	297.617584
9561.756007	0.255253	0.318555	529.387024
9561.756904	0.250031	0.318555	753.664429
9561.757869	0.486141	0.318555	1222.790771
9561.758770	0.099536	0.318555	1312.472778
9561.759662	0.101781	0.318555	1403.261475
9561.760552	0.101283	0.318555	1493.403320
9561.761496	0.099844	0.318555	1587.655762
9561.762408	0.100781	0.318555	1679.568237
9561.763309	0.102019	0.318555	1771.487427
9561.764233	0.100305	0.318555	1864.169434
9561.765134	0.099313	0.318555	1953.650269
9561.766035	0.101774	0.318555	2045.348389
9561.766956	0.101353	0.318555	2138.694092
9562.787322	0.720765	0.312916	349.571198
9562.788234	0.255081	0.312916	582.204712
9562.789145	0.248826	0.312916	808.884888
9562.790048	0.479780	0.312916	1242.126465
9562.790976	0.098884	0.312916	1333.891113
9562.791881	0.099847	0.312916	1424.253052
9562.792786	0.102839	0.312916	1517.322632
9562.793677	0.101550	0.312916	1607.803955
9562.794631	0.099686	0.312916	1702.904663
9562.795534	0.101294	0.312916	1794.373047
9562.796430	0.102125	0.312916	1885.877319
9562.797364	0.100155	0.312916	1979.422119
9562.798267	0.099232	0.312916	2069.028809
9562.799173	0.100660	0.312916	2160.227051
9563.791830	0.686737	0.330020	304.911255
9563.792741	0.254711	0.330020	536.952698
9563.793639	0.249375	0.330020	760.891479
9563.794615	0.488108	0.330020	1237.284790
9563.795523	0.100203	0.330020	1328.268799
9563.796418	0.102572	0.330020	1420.070801
9563.797302	0.102209	0.330020	1510.423950
9563.798239	0.099683	0.330020	1603.826538
9563.799144	0.101133	0.330020	1695.351685
9563.800037	0.101367	0.330020	1785.872559
9563.800963	0.099639	0.330020	1878.137939
9563.801876	0.099481	0.330020	1968.964233
9563.802784	0.100155	0.330020	2059.905029
9563.803674	0.101213	0.330020	2149.984863
9564.821979	0.663724	0.323277	300.003418
9564.822875	0.254872	0.323277	528.368530
9564.823814	0.249415	0.323277	762.569458
9564.824732	0.491100	0.323277	1213.399170
9564.825640	0.100485	0.323277	1304.639160
9564.826531	0.101946	0.323277	1395.472900
9564.827459	0.099829	0.323277	1488.114258
9564.828365	0.099851	0.323277	1578.579346
9564.829268	0.102023	0.323277	1670.705811
9564.830156	0.100961	0.323277	1760.358887
9564.831117	0.099298	0.323277	1855.784302
9564.832023	0.100375	0.323277	1946.723877
9564.832921	0.100854	0.323277	2037.291260
9564.833860	0.099771	0.323277	2130.975830
9565.829575	0.718905	0.335184	312.004791
9565.830518	0.254722	0.335184	552.207336
9565.831441	0.248990	0.335184	782.025513
9565.832352	0.491492	0.335184	1229.774414
9565.833240	0.100543	0.335184	1319.056763
9565.834203	0.099690	0.335184	1415.058228
9565.835112	0.100558	0.335184	1506.465332
9565.836004	0.101770	0.335184	1597.244141
9565.836909	0.100712	0.335184	1688.388184
9565.837835	0.099265	0.335184	1780.307739
9565.838740	0.101583	0.335184	1872.240601
9565.839635	0.100953	0.335184	1962.593872
9565.840559	0.099100	0.335184	2054.162598
9565.841455	0.099199	0.335184	2143.045166
9566.858716	0.672957	0.322806	303.503387
9566.859639	0.255190	0.322806	539.044189
9566.860543	0.249503	0.322806	764.595093
9566.861536	0.475671	0.322806	1236.936768
9566.862448	0.100781	0.322806	1328.849243
9566.863367	0.101587	0.322806	1422.207642
9566.864257	0.102627	0.322806	1513.545654
9566.865209	0.101206	0.322806	1609.893799
9566.866102	0.101968	0.322806	1700.951050
9566.866994	0.101693	0.322806	1791.661255
9566.867926	0.099697	0.322806	1884.579102
9566.868830	0.100774	0.322806	1975.678711
9566.869749	0.101774	0.322806	2069.208740
9566.870644	0.101016	0.322806	2159.617676
9567.866316	0.718663	0.328848	315.493195
9567.867289	0.255304	0.328848	563.903931
9567.868190	0.248833	0.328848	788.102478
9567.869106	0.488101	0.328848	1235.202637
9567.869999	0.099606	0.328848	1324.150513
9567.870953	0.099510	0.328848	1419.083496
9567.871863	0.101550	0.328848	1511.494263
9567.872759	0.101884	0.328848	1602.781982
9567.873694	0.099360	0.328848	1695.683960
9567.874594	0.099254	0.328848	1785.012695
9567.875489	0.101605	0.328848	1875.949341
9567.876376	0.101074	0.328848	1965.602173
9567.877318	0.099163	0.328848	2059.013428
9567.878222	0.099902	0.328848	2149.325195
9568.894413	0.709830	0.316167	311.615509
9568.895316	0.254791	0.316167	541.692017
9568.896209	0.250111	0.316167	765.041199
9568.897196	0.480190	0.316167	1238.989136
9568.898101	0.099551	0.316167	1329.082642
9568.899013	0.103077	0.316167	1423.089233
9568.899912	0.100997	0.316167	1513.885864
9568.900846	0.099521	0.316167	1606.838867
9568.901756	0.099954	0.316167	1697.796631
9568.902644	0.102217	0.316167	1788.565186
9568.903575	0.099390	0.316167	1881.096924
9568.904477	0.098789	0.316167	1970.204712
9568.905384	0.101726	0.316167	2062.470215
9568.906275	0.100671	0.316167	2152.168457
9569.902046	0.718110	0.326886	324.585907
9569.902949	0.254780	0.326886	554.652466
9569.903840	0.249430	0.326886	776.894531
9569.904800	0.482816	0.326886	1240.398071
9569.905703	0.100217	0.326886	1330.894287
9569.906591	0.102246	0.326886	1421.688843
9569.907525	0.100151	0.326886	1515.230225
9569.908442	0.101213	0.326886	1608.042847
9569.909353	0.101312	0.326886	1700.338257
9569.910248	0.101755	0.326886	1791.409302
9569.911192	0.099822	0.326886	1885.641113
9569.912091	0.101510	0.326886	1976.898560
9569.913018	0.101960	0.326886	2071.416016
9569.913906	0.101499	0.326886	2161.547119
9570.931145	0.714716	0.312340	313.760132
9570.932052	0.254608	0.312340	544.689697
9570.932946	0.249100	0.312340	767.385376
9570.933911	0.480758	0.312340	1231.316895
9570.934816	0.100104	0.312340	1321.910767
9570.935714	0.103055	0.312340	1414.454590
9570.936652	0.100195	0.312340	1508.437744
9570.937552	0.099474	0.312340	1597.964233
9570.938448	0.101667	0.312340	1689.058350
9570.939337	0.100422	0.312340	1778.333862
9570.940295	0.099005	0.312340	1873.180786
9570.941190	0.100551	0.312340	1963.173584
9570.942095	0.101349	0.312340	2054.894287
9570.942986	0.100367	0.312340	2144.321777
9571.936776	0.564613	0.325524	279.483459
9571.937686	0.255355	0.325524	511.856689
9571.938599	0.249038	0.325524	739.228455
9571.939497	0.475031	0.325524	1165.805908
9571.940450	0.098914	0.325524	1260.070557
9571.941350	0.100631	0.325524	1350.638550
9571.942249	0.102737	0.325524	1442.998901
9571.943192	0.100203	0.325524	1537.489990
9571.944096	0.099547	0.325524	1627.480591
9571.945000	0.103118	0.325524	1720.698975
9571.945884	0.101858	0.325524	1810.741333
9571.946845	0.099188	0.325524	1906.061279
9571.947748	0.100056	0.325524	1996.411987
9571.948647	0.102070	0.325524	2088.173096
9572.963851	0.567759	0.308952	279.337341
9572.964772	0.255238	0.308952	514.411560
9572.965665	0.249100	0.308952	736.858154
9572.966611	0.478543	0.308952	1189.559326
9572.967517	0.099203	0.308952	1279.437134
9572.968421	0.101008	0.308952	1370.748657
9572.969308	0.100847	0.308952	1460.200073
9572.970264	0.099353	0.308952	1555.181519
9572.971160	0.099855	0.308952	1644.651367
9572.972051	0.101049	0.308952	1734.685669
9572.972980	0.099847	0.308952	1827.443970
9572.973893	0.099009	0.308952	1917.838989
9572.974798	0.101444	0.308952	2009.645874
9572.975692	0.101572	0.308952	2100.451416
9573.972431	0.728492	0.336421	321.993652
9573.973329	0.255059	0.336421	551.036255
9573.974273	0.249620	0.336421	786.677856
9573.975201	0.469764	0.336421	1222.619263
9573.976129	0.100759	0.336421	1316.123901
9573.977019	0.101627	0.336421	1406.572144
9573.977967	0.101041	0.336421	1502.359253
9573.978872	0.101836	0.336421	1594.520752
9573.979763	0.101884	0.336421	1685.298950
9573.980697	0.100148	0.336421	1778.836914
9573.981608	0.101133	0.336421	1870.968872
9573.982527	0.101063	0.336421	1963.845947
9573.983417	0.101268	0.336421	2053.974854
9573.984359	0.099825	0.336421	2148.010498
9574.994391	0.692585	0.314966	313.048615
9574.995286	0.255209	0.314966	541.460449
9574.996228	0.249452	0.314966	776.444153
9574.997151	0.491012	0.314966	1229.648193
9574.998048	0.102198	0.314966	1321.320190
9574.998943	0.101144	0.314966	1411.843872
9574.999870	0.099686	0.314966	1504.253052
9575.000774	0.100865	0.314966	1595.435425
9575.001679	0.101550	0.314966	1687.338379
9575.002567	0.100737	0.314966	1776.793091
9575.003513	0.099075	0.314966	1870.517822
9575.004429	0.100393	0.314966	1962.477905
9575.005321	0.100935	0.314966	2052.511963
9575.006258	0.099302	0.314966	2145.557617
9576.011216	0.707523	0.343861	314.847809
9576.012113	0.254791	0.343861	543.395569
9576.013071	0.248826	0.343861	781.770569
9576.014004	0.485676	0.343861	1234.906494
9576.014907	0.100994	0.343861	1326.103760
9576.015793	0.100338	0.343861	1415.003296
9576.016748	0.099584	0.343861	1510.105713
9576.017654	0.100481	0.343861	1601.141479
9576.018543	0.101294	0.343861	1691.191772
9576.019479	0.099620	0.343861	1784.436401
9576.020381	0.098837	0.343861	1873.587036
9576.021281	0.101305	0.343861	1964.761475
9576.022173	0.101246	0.343861	2055.073242
9576.023123	0.098826	0.343861	2148.957520
9577.023960	0.691890	0.320880	305.815216
9577.024875	0.254886	0.320880	539.036377
9577.025772	0.249730	0.320880	763.044373
9577.026742	0.475360	0.320880	1224.143677
9577.027658	0.100378	0.320880	1316.090332
9577.028559	0.102466	0.320880	1408.411987
9577.029447	0.100873	0.320880	1497.987061
9577.030410	0.099521	0.320880	1593.826294
9577.031319	0.101744	0.320880	1686.311890
9577.032208	0.101433	0.320880	1776.485962
9577.033135	0.099866	0.320880	1869.061523
9577.034041	0.099943	0.320880	1959.609497
9577.034935	0.101331	0.320880	2050.198975
9577.035820	0.101063	0.320880	2139.639893
9578.053078	0.686580	0.332332	301.408447
9578.053998	0.254993	0.332332	536.001709
9578.054900	0.249591	0.332332	761.132874
9578.055845	0.460554	0.332332	1196.356567
9578.056750	0.098621	0.332332	1285.608154
9578.057646	0.100492	0.332332	1375.648926
9578.058534	0.101301	0.332332	1465.604492
9578.059482	0.099694	0.332332	1560.114014
9578.060390	0.099789	0.332332	1650.722290
9578.061289	0.101847	0.332332	1742.282715
9578.062173	0.100854	0.332332	1831.438110
9578.063102	0.099342	0.332332	1923.726807
9578.064014	0.100792	0.332332	2015.649292
9578.064907	0.101949	0.332332	2106.690186
9579.053534	0.687308	0.328469	310.663391
9579.054438	0.255022	0.328469	541.203247
9579.055332	0.249822	0.328469	764.543945
9579.056286	0.467358	0.328469	1210.403809
9579.057193	0.099811	0.328469	1300.932129
9579.058089	0.102975	0.328469	1393.197632
9579.059017	0.100426	0.328469	1486.392944
9579.059938	0.099624	0.328469	1578.146729
9579.060851	0.101462	0.328469	1670.781860
9579.061746	0.102206	0.328469	1762.256104
9579.062687	0.099492	0.328469	1855.878296
9579.063580	0.099371	0.328469	1944.616943
9579.064479	0.101451	0.328469	2035.821777
9579.065364	0.100085	0.328469	2124.397461
9580.094926	0.714445	0.319901	316.498962
9580.095820	0.254443	0.319901	543.971313
9580.096789	0.248862	0.319901	785.118896
9580.097697	0.481318	0.319901	1222.156006
9580.098586	0.101030	0.319901	1311.971924
9580.099532	0.100386	0.319901	1406.936890
9580.100445	0.100547	0.319901	1498.736206
9580.101345	0.101664	0.319901	1590.233643
9580.102233	0.101477	0.319901	1680.345215
9580.103182	0.099137	0.319901	1774.426147
9580.104086	0.100708	0.319901	1865.466187
9580.104985	0.101503	0.319901	1956.717041
9580.105874	0.099690	0.319901	2045.341431
9580.106819	0.099159	0.319901	2139.046631
9581.086180	0.659817	0.330713	300.876526
9581.087098	0.255194	0.330713	535.144714
9581.087996	0.249445	0.330713	759.145935
9581.088954	0.463938	0.330713	1203.598511
9581.089851	0.098628	0.330713	1292.067749
9581.090749	0.101873	0.330713	1383.549316
9581.091639	0.102678	0.330713	1474.932983
9581.092578	0.099679	0.330713	1568.531494
9581.093479	0.099979	0.330713	1658.612793
9581.094382	0.101766	0.330713	1750.507812
9581.095269	0.100536	0.330713	1839.683105
9581.096213	0.099265	0.330713	1933.389404
9581.097122	0.100038	0.330713	2024.323853
9581.098016	0.100741	0.330713	2114.386230
9582.132690	0.700569	0.320046	309.651428
9582.133613	0.254927	0.320046	544.948853
9582.134518	0.249364	0.320046	770.623291
9582.135471	0.463107	0.320046	1211.963989
9582.136375	0.098628	0.320046	1301.123657
9582.137273	0.102059	0.320046	1392.772949
9582.138158	0.101327	0.320046	1482.447266
9582.139095	0.099558	0.320046	1575.733154
9582.140003	0.099404	0.320046	1665.992310
9582.140910	0.101576	0.320046	1758.121704
9582.141805	0.100591	0.320046	1848.150513
9582.142759	0.099166	0.320046	1942.755127
9582.143664	0.100785	0.320046	2033.965454
9582.144557	0.101005	0.320046	2124.162598
9583.123930	0.700408	0.339885	315.183472
9583.124831	0.255070	0.339885	545.001160
9583.125725	0.249943	0.339885	768.449829
9583.126695	0.469852	0.339885	1224.206543
9583.127595	0.100294	0.339885	1314.471313
9583.128488	0.101774	0.339885	1405.355225
9583.129406	0.100605	0.339885	1497.711060
9583.130323	0.100906	0.339885	1590.241699
9583.131225	0.101418	0.339885	1681.721191
9583.132117	0.102096	0.339885	1772.790771
9583.133046	0.099331	0.339885	1865.069336
9583.133955	0.100122	0.339885	1956.080322
9583.134886	0.101320	0.339885	2050.408936
9583.135777	0.100389	0.339885	2139.855957
9584.160215	0.701404	0.323672	315.631714
9584.161116	0.255135	0.323672	545.508789
9584.162079	0.249408	0.323672	785.688660
9584.162992	0.490294	0.323672	1233.327271
9584.163889	0.102056	0.323672	1324.871216
9584.164775	0.101880	0.323672	1415.136841
9584.165708	0.099803	0.323672	1508.253418
9584.166618	0.100796	0.323672	1599.977661
9584.167516	0.101825	0.323672	1691.416504
9584.168424	0.100433	0.323672	1782.609985
9584.169357	0.099056	0.323672	1875.029663
9584.170258	0.100708	0.323672	1965.767578
9584.171157	0.100708	0.323672	2056.304199
9584.172098	0.099016	0.323672	2149.478271
9585.163725	0.720055	0.348595	314.664001
9585.164619	0.254733	0.348595	542.395020
9585.165577	0.249313	0.348595	781.236633
9585.166503	0.483190	0.348595	1228.670288
9585.167400	0.101426	0.348595	1319.649170
9585.168300	0.100770	0.348595	1410.342407
9585.169234	0.099478	0.348595	1503.254395
9585.170143	0.100294	0.348595	1594.421875
9585.171034	0.101506	0.348595	1684.864014
9585.171972	0.099690	0.348595	1778.373169
9585.172862	0.098910	0.348595	1866.402954
9585.173763	0.100972	0.348595	1957.378418
9585.174658	0.101473	0.348595	2048.197021
9585.175603	0.099045	0.348595	2141.794922
9586.188776	0.620911	0.331744	288.102539
9586.189692	0.254868	0.331744	521.561768
9586.190610	0.248668	0.331744	749.839233
9586.191532	0.431422	0.331744	1147.610352
9586.192482	0.099078	0.331744	1241.734863
9586.193385	0.101239	0.331744	1333.153687
9586.194272	0.103074	0.331744	1424.580078
9586.195197	0.099946	0.331744	1517.030396
9586.196102	0.099745	0.331744	1607.299561
9586.197003	0.101700	0.331744	1698.931641
9586.197892	0.101865	0.331744	1789.489868
9586.198857	0.099368	0.331744	1885.379639
9586.199765	0.100367	0.331744	1976.513306
9586.200665	0.100265	0.331744	2066.751709
9587.208674	0.666727	0.333158	300.027283
9587.209592	0.254971	0.333158	534.090393
9587.210495	0.249324	0.333158	759.229736
9587.211409	0.414207	0.333158	1137.814453
9587.212362	0.098884	0.333158	1232.051147
9587.213271	0.101444	0.333158	1324.263794
9587.214167	0.101598	0.333158	1415.295532
9587.215088	0.100298	0.333158	1507.669800
9587.215994	0.099423	0.333158	1597.746704
9587.216894	0.101349	0.333158	1688.960693
9587.217779	0.100792	0.333158	1778.161865
9587.218728	0.098921	0.333158	1872.037842
9587.219628	0.099862	0.333158	1961.913696
9587.220524	0.101078	0.333158	2052.479492
9588.220375	0.655510	0.337630	298.912659
9588.221276	0.255165	0.337630	528.816162
9588.222232	0.249108	0.337630	766.963135
9588.223153	0.474668	0.337630	1204.132324
9588.224048	0.101415	0.337630	1294.898560
9588.224933	0.100602	0.337630	1383.931152
9588.225882	0.099946	0.337630	1478.780151
9588.226772	0.102719	0.337630	1570.199585
9588.227662	0.101594	0.337630	1660.618408
9588.228602	0.100140	0.337630	1754.750366
9588.229505	0.100100	0.337630	1845.140747
9588.230416	0.101550	0.337630	1937.653076
9588.231306	0.100778	0.337630	2027.345093
9588.232255	0.098987	0.337630	2121.283691
9589.249506	0.663501	0.324421	301.892944
9589.250402	0.254916	0.324421	530.297485
9589.251334	0.249364	0.324421	762.704773
9589.252262	0.434850	0.324421	1166.245483
9589.253162	0.100137	0.324421	1256.368530
9589.254065	0.102946	0.324421	1349.328369
9589.255003	0.099642	0.324421	1442.792847
9589.255918	0.099690	0.324421	1534.009155
9589.256824	0.101466	0.324421	1625.937378
9589.257714	0.100917	0.324421	1715.753296
9589.258660	0.099104	0.324421	1809.505737
9589.259565	0.099983	0.324421	1899.990234
9589.260461	0.101503	0.324421	1990.936646
9589.261397	0.100272	0.324421	2084.791504
9590.256086	0.700825	0.340200	314.670502
9590.256985	0.255055	0.340200	543.964905
9590.257923	0.249430	0.340200	777.930176
9590.258856	0.483406	0.340200	1228.947754
9590.259763	0.099917	0.340200	1319.572510
9590.260658	0.101532	0.340200	1410.443604
9590.261595	0.100093	0.340200	1504.230591
9590.262501	0.100045	0.340200	1594.871460
9590.263397	0.101221	0.340200	1685.565186
9590.264285	0.100840	0.340200	1775.110962
9590.265222	0.099250	0.340200	1868.108643
9590.266137	0.100063	0.340200	1959.666748
9590.267031	0.101151	0.340200	2050.095947
9590.267960	0.099518	0.340200	2142.548096
9591.280093	0.686953	0.323732	307.068054
9591.280993	0.255110	0.323732	536.666931
9591.281906	0.249782	0.323732	764.717407
9591.282854	0.488394	0.323732	1227.714478
9591.283752	0.100686	0.323732	1318.130493
9591.284642	0.102074	0.323732	1408.976318
9591.285581	0.100426	0.323732	1503.276367
9591.286485	0.100825	0.323732	1594.422363
9591.287404	0.100609	0.323732	1686.882202
9591.288302	0.101774	0.323732	1778.274902
9591.289263	0.099756	0.323732	1874.140259
9591.290163	0.101543	0.323732	1965.528931
9591.291058	0.100964	0.323732	2055.892090
9591.291981	0.100129	0.323732	2148.311523
9592.292816	0.692541	0.349207	308.873505
9592.293721	0.255216	0.349207	539.844055
9592.294660	0.249426	0.349207	774.055298
9592.295581	0.488976	0.349207	1224.401978
9592.296484	0.101521	0.349207	1316.075439
9592.297371	0.101400	0.349207	1406.017334
9592.298307	0.099910	0.349207	1499.532715
9592.299210	0.101276	0.349207	1590.984619
9592.300103	0.101807	0.349207	1681.897949
9592.301042	0.100287	0.349207	1776.067261
9592.301949	0.099005	0.349207	1865.864868
9592.302858	0.100338	0.349207	1957.072266
9592.303764	0.100745	0.349207	2048.346924
9592.304699	0.098694	0.349207	2140.625732
9593.309662	0.714976	0.326068	321.739014
9593.310560	0.254945	0.326068	550.679687
9593.311509	0.249364	0.326068	787.326172
9593.312431	0.472379	0.326068	1222.859741
9593.313329	0.101422	0.326068	1313.936768
9593.314218	0.102220	0.326068	1404.810791
9593.315162	0.099943	0.326068	1499.156616
9593.316074	0.101301	0.326068	1591.543335
9593.316975	0.102979	0.326068	1684.327026
9593.317867	0.100961	0.326068	1774.383911
9593.318817	0.099349	0.326068	1868.765869
9593.319725	0.101202	0.326068	1960.657593
9593.320614	0.101953	0.326068	2051.293945
9593.321551	0.099060	0.326068	2144.113281
9594.333647	0.732993	0.352103	321.051025
9594.334606	0.255264	0.352103	565.848877
9594.335505	0.249133	0.352103	789.819702
9594.336419	0.486189	0.352103	1234.196411
9594.337309	0.099459	0.352103	1322.715088
9594.338260	0.099489	0.352103	1417.328613
9594.339171	0.100247	0.352103	1508.653198
9594.340071	0.102166	0.352103	1600.602173
9594.340994	0.099573	0.352103	1692.507812
9594.341890	0.099042	0.352103	1781.249268
9594.342784	0.102140	0.352103	1872.562378
9594.343671	0.100909	0.352103	1962.069092
9594.344622	0.099111	0.352103	2056.323975
9594.345525	0.100020	0.352103	2146.641602
9595.339247	0.618508	0.332191	292.554413
9595.340149	0.255037	0.332191	522.597412
9595.341102	0.248818	0.332191	759.721313
9595.342019	0.483823	0.332191	1203.387207
9595.342923	0.101038	0.332191	1294.725220
9595.343810	0.101616	0.332191	1384.858765
9595.344758	0.099888	0.332191	1479.552246
9595.345666	0.101810	0.332191	1571.995972
9595.346571	0.101440	0.332191	1663.799561
9595.347502	0.100397	0.332191	1757.268921
9595.348407	0.099393	0.332191	1847.219849
9595.349309	0.101873	0.332191	1939.108887
9595.350200	0.101100	0.332191	2029.188843
9595.351150	0.099016	0.332191	2123.254150
9596.374478	0.714163	0.335305	312.803223
9596.375453	0.254974	0.335305	561.403198
9596.376362	0.248785	0.335305	787.549133
9596.377293	0.459056	0.335305	1214.930664
9596.378181	0.101184	0.335305	1304.782104
9596.379129	0.101865	0.335305	1401.350342
9596.380034	0.102810	0.335305	1494.393433
9596.380924	0.101638	0.335305	1584.851440
9596.381869	0.099954	0.335305	1679.307617
9596.382783	0.101730	0.335305	1772.288574
9596.383703	0.100858	0.335305	1865.078125
9596.384594	0.100726	0.335305	1954.825317
9596.385556	0.100181	0.335305	2051.199219
9596.386452	0.100704	0.335305	2141.430420
9597.371856	0.691729	0.329509	307.127472
9597.372758	0.255015	0.329509	537.150696
9597.373650	0.249851	0.329509	760.017822
9597.374615	0.485636	0.329509	1228.656494
9597.375524	0.100144	0.329509	1319.687378
9597.376417	0.102832	0.329509	1411.516357
9597.377359	0.100536	0.329509	1506.221191
9597.378256	0.099749	0.329509	1595.695679
9597.379153	0.101957	0.329509	1687.150879
9597.380043	0.101624	0.329509	1777.595825
9597.380984	0.099272	0.329509	1871.011230
9597.381887	0.100042	0.329509	1961.348755
9597.382791	0.102480	0.329509	2053.991211
9597.383677	0.100660	0.329509	2143.176270
9598.414355	0.731305	0.321919	374.428131
9598.415275	0.255271	0.321919	609.277466
9598.416185	0.248309	0.321919	835.238953
9598.417086	0.479268	0.321919	1267.059082
9598.418033	0.098833	0.321919	1360.653931
9598.418938	0.101298	0.321919	1452.328247
9598.419835	0.102081	0.321919	1543.895142
9598.420725	0.100642	0.321919	1633.466553
9598.421669	0.100470	0.321919	1728.310181
9598.422571	0.101334	0.321919	1819.713623
9598.423464	0.102052	0.321919	1910.846069
9598.424400	0.099543	0.321919	2004.018799
9598.425310	0.100166	0.321919	2095.169922
9598.426210	0.101532	0.321919	2186.548828
9599.405524	0.686971	0.323261	309.137146
9599.406427	0.255260	0.323261	539.636963
9599.407378	0.249463	0.323261	776.876160
9599.408292	0.489327	0.323261	1224.121338
9599.409193	0.102469	0.323261	1316.446289
9599.410083	0.101140	0.323261	1406.461060
9599.411028	0.099617	0.323261	1500.598877
9599.411944	0.100792	0.323261	1592.924561
9599.412832	0.102206	0.323261	1683.683350
9599.413766	0.099763	0.323261	1776.862183
9599.414673	0.099203	0.323261	1866.839233
9599.415570	0.101876	0.323261	1958.222168
9599.416458	0.101224	0.323261	2048.109375
9599.417409	0.098994	0.323261	2142.252686
9600.451027	0.692175	0.315244	305.249329
9600.451949	0.255198	0.315244	540.541626
9600.452858	0.249430	0.315244	767.273437
9600.453809	0.482073	0.315244	1225.724609
9600.454708	0.098665	0.315244	1314.424072
9600.455606	0.101909	0.315244	1405.938477
9600.456495	0.101748	0.315244	1496.392456
9600.457449	0.099368	0.315244	1591.189209
9600.458353	0.100708	0.315244	1682.229248
9600.459248	0.102356	0.315244	1773.837891
9600.460172	0.100250	0.315244	1866.469116
9600.461091	0.099177	0.315244	1957.613037
9600.462001	0.101283	0.315244	2049.780518
9600.462896	0.101591	0.315244	2140.704102
9601.439215	0.720326	0.320703	339.273529
9601.440120	0.254725	0.320703	569.799988
9601.441063	0.248734	0.320703	804.356262
9601.442000	0.471819	0.320703	1246.450439
9601.442913	0.100294	0.320703	1338.019043
9601.443811	0.102297	0.320703	1429.882080
9601.444760	0.100536	0.320703	1525.290649
9601.445663	0.101111	0.320703	1616.593750
9601.446588	0.101829	0.320703	1710.785156
9601.447476	0.101840	0.320703	1801.218750
9601.448418	0.100210	0.320703	1895.616577
9601.449322	0.101140	0.320703	1987.047241
9601.450211	0.101360	0.320703	2077.156250
9601.451151	0.099789	0.320703	2170.957764
9602.485709	0.714133	0.319591	311.362091
9602.486647	0.254806	0.319591	550.369995
9602.487569	0.249185	0.319591	780.118164
9602.488497	0.487683	0.319591	1232.688110
9602.489399	0.100166	0.319591	1323.037842
9602.490334	0.099595	0.319591	1416.158936
9602.491236	0.099569	0.319591	1505.970215
9602.492137	0.101686	0.319591	1597.589111
9602.493028	0.101854	0.319591	1688.341187
9602.493971	0.099423	0.319591	1782.096680
9602.494869	0.100616	0.319591	1872.450195
9602.495768	0.102019	0.319591	1964.165283
9602.496699	0.099807	0.319591	2057.085693
9602.497609	0.098928	0.319591	2147.110352
9603.474895	0.706238	0.324074	314.275818
9603.475790	0.254821	0.324074	542.340210
9603.476732	0.249426	0.324074	777.299744
9603.477655	0.491085	0.324074	1230.571411
9603.478551	0.101199	0.324074	1321.245483
9603.479440	0.101338	0.324074	1411.334839
9603.480387	0.099800	0.324074	1505.845215
9603.481285	0.100144	0.324074	1595.774536
9603.482186	0.101144	0.324074	1686.905151
9603.483074	0.100225	0.324074	1775.904541
9603.484026	0.099137	0.324074	1870.282959
9603.484929	0.099844	0.324074	1960.441895
9603.485829	0.100752	0.324074	2051.118652
9603.486765	0.099174	0.324074	2143.945068
9604.519368	0.713796	0.327579	310.501434
9604.520317	0.254795	0.327579	552.301819
9604.521241	0.249005	0.327579	782.382568
9604.522152	0.477125	0.327579	1217.043701
9604.523041	0.100715	0.327579	1306.579590
9604.523983	0.099349	0.327579	1400.166748
9604.524895	0.101144	0.327579	1492.409912
9604.525800	0.101730	0.327579	1584.475342
9604.526692	0.100305	0.327579	1673.947510
9604.527635	0.099371	0.327579	1767.654663
9604.528535	0.102041	0.327579	1859.491577
9604.529425	0.101660	0.327579	1949.969116
9604.530357	0.099452	0.327579	2042.658325
9604.531270	0.099346	0.327579	2133.360840
9605.510618	0.677955	0.322938	303.046021
9605.511541	0.254769	0.322938	538.198059
9605.512436	0.249393	0.322938	761.405090
9605.513388	0.490170	0.322938	1228.046631
9605.514289	0.099108	0.322938	1317.342651
9605.515195	0.102378	0.322938	1410.097046
9605.516085	0.100734	0.322938	1499.750000
9605.517043	0.099452	0.322938	1595.024902
9605.517947	0.100712	0.322938	1686.068237
9605.518845	0.101635	0.322938	1777.336060
9605.519778	0.099800	0.322938	1870.449219
9605.520675	0.098837	0.322938	1959.105713
9605.521571	0.100089	0.322938	2048.785645
9605.522456	0.100474	0.322938	2137.704834
9606.555096	0.700734	0.338645	313.227936
9606.555986	0.254425	0.338645	539.666260
9606.556940	0.248767	0.338645	776.990051
9606.557856	0.485050	0.338645	1221.295898
9606.558752	0.101338	0.338645	1312.094604
9606.559682	0.099847	0.338645	1404.952637
9606.560585	0.099591	0.338645	1494.883301
9606.561486	0.101268	0.338645	1586.126099
9606.562373	0.101982	0.338645	1676.584473
9606.563326	0.099434	0.338645	1771.344727
9606.564226	0.099558	0.338645	1860.947021
9606.565127	0.101752	0.338645	1952.625366
9606.566012	0.101158	0.338645	2042.150635
9606.566955	0.098873	0.338645	2135.388184
9607.546371	0.703927	0.322902	349.851715
9607.547285	0.255344	0.322902	583.236328
9607.548194	0.248855	0.322902	809.445496
9607.549095	0.483073	0.322902	1244.693848
9607.550052	0.099196	0.322902	1339.624023
9607.550960	0.100675	0.322902	1431.036987
9607.551858	0.101898	0.322902	1522.541504
9607.552782	0.100327	0.322902	1615.243774
9607.553705	0.099232	0.322902	1706.835083
9607.554610	0.100891	0.322902	1798.141602
9607.555508	0.101558	0.322902	1889.340332
9607.556449	0.099137	0.322902	1982.628174
9607.557357	0.098994	0.322902	2072.514893
9607.558255	0.100745	0.322902	2162.983643
9608.590814	0.677303	0.345267	302.077332
9608.591722	0.254685	0.345267	533.331360
9608.592612	0.249430	0.345267	755.323975
9608.593579	0.483713	0.345267	1223.074829
9608.594484	0.100159	0.345267	1313.718506
9608.595384	0.101287	0.345267	1404.876465
9608.596271	0.100653	0.345267	1494.155762
9608.597222	0.099749	0.345267	1589.016602
9608.598132	0.101367	0.345267	1681.260742
9608.599023	0.101554	0.345267	1771.745361
9608.599959	0.099653	0.345267	1865.020874
9608.600865	0.100085	0.345267	1955.698242
9608.601761	0.101700	0.345267	2046.821777
9608.602650	0.100430	0.345267	2136.103760
9609.584087	0.692695	0.327700	310.327515
9609.584990	0.255004	0.327700	540.595825
9609.585916	0.249456	0.327700	771.591675
9609.586846	0.484948	0.327700	1222.592896
9609.587753	0.099785	0.327700	1313.098022
9609.588641	0.101210	0.327700	1402.972290
9609.589566	0.099943	0.327700	1495.419189
9609.590471	0.099445	0.327700	1585.416504
9609.591381	0.101558	0.327700	1677.833984
9609.592269	0.100525	0.327700	1767.100098
9609.593224	0.099001	0.327700	1861.646484
9609.594125	0.100001	0.327700	1951.747559
9609.595023	0.100844	0.327700	2042.305054
9609.595946	0.099294	0.327700	2133.953857
9610.621396	0.686353	0.354927	304.740540
9610.622292	0.254557	0.354927	532.823486
9610.623258	0.248610	0.354927	772.980347
9610.624181	0.481157	0.354927	1217.088501
9610.625077	0.100206	0.354927	1306.873291
9610.626015	0.100045	0.354927	1400.715698
9610.626915	0.099598	0.354927	1490.354248
9610.627818	0.101451	0.354927	1581.964844
9610.628710	0.101785	0.354927	1672.756714
9610.629645	0.099188	0.354927	1765.497681
9610.630548	0.100027	0.354927	1855.821899
9610.631452	0.101155	0.354927	1947.265869
9610.632339	0.100847	0.354927	2036.717285
9610.633285	0.098906	0.354927	2130.282715
9611.623930	0.723054	0.332566	350.681274
9611.624859	0.254982	0.332566	587.559265
9611.625781	0.248320	0.332566	816.510620
9611.626687	0.482014	0.332566	1253.215454
9611.627645	0.101276	0.332566	1350.237549
9611.628564	0.101104	0.332566	1443.151733
9611.629456	0.101477	0.332566	1533.669312
9611.630401	0.100338	0.332566	1628.488892
9611.631308	0.101770	0.332566	1720.794312
9611.632222	0.101865	0.332566	1813.899170
9611.633117	0.100591	0.332566	1903.927979
9611.634072	0.100063	0.332566	1999.488647
9611.634976	0.101060	0.332566	2090.846436
9611.635903	0.101616	0.332566	2185.044678
9612.649943	0.685254	0.360366	303.567474
9612.650869	0.254949	0.360366	539.650024
9612.651765	0.249543	0.360366	763.240967
9612.652731	0.486453	0.360366	1233.154175
9612.653632	0.099126	0.360366	1322.466675
9612.654531	0.102001	0.360366	1414.165283
9612.655423	0.101140	0.360366	1504.382324
9612.656356	0.099159	0.360366	1596.897583
9612.657258	0.100745	0.360366	1687.769287
9612.658158	0.101338	0.360366	1778.973389
9612.659088	0.099606	0.360366	1871.606689
9612.659986	0.098815	0.360366	1960.342285
9612.660886	0.101719	0.360366	2051.889160
9612.661779	0.101887	0.360366	2142.874512
9613.663715	0.659000	0.329569	299.845093
9613.664625	0.254791	0.329569	531.705139
9613.665520	0.249397	0.329569	754.915405
9613.666467	0.451296	0.329569	1182.293091
9613.667391	0.100939	0.329569	1275.560425
9613.668298	0.101993	0.329569	1368.068481
9613.669187	0.101873	0.329569	1458.633179
9613.670132	0.099562	0.329569	1552.718994
9613.671052	0.100814	0.329569	1645.468018
9613.671970	0.101323	0.329569	1738.482788
9613.672862	0.100367	0.329569	1828.010498
9613.673808	0.099825	0.329569	1922.445312
9613.674708	0.101924	0.329569	2014.176758
9613.675600	0.100818	0.329569	2104.106201
9614.679500	0.692113	0.355221	305.913971
9614.680415	0.254370	0.355221	538.662598
9614.681321	0.248683	0.355221	763.969238
9614.682287	0.469633	0.355221	1217.634277
9614.683184	0.098914	0.355221	1306.359741
9614.684087	0.101957	0.355221	1398.426758
9614.684975	0.101085	0.355221	1488.190430
9614.685910	0.099335	0.355221	1581.068359
9614.686810	0.100049	0.355221	1671.112305
9614.687719	0.101616	0.355221	1763.481445
9614.688609	0.101906	0.355221	1854.177368
9614.689555	0.098866	0.355221	1947.704590
9614.690462	0.100580	0.355221	2038.930542
9614.691360	0.100917	0.355221	2129.553711
9615.702476	0.728679	0.322934	320.618835
9615.703445	0.255282	0.322934	567.987061
9615.704354	0.248903	0.322934	794.239502
9615.705249	0.480461	0.322934	1224.252441
9615.706179	0.099448	0.322934	1316.739258
9615.707118	0.100950	0.322934	1411.531006
9615.708022	0.101660	0.322934	1503.431763
9615.708915	0.100646	0.322934	1593.308472
9615.709851	0.099620	0.322934	1686.553101
9615.710767	0.101001	0.322934	1779.069946
9615.711682	0.100635	0.322934	1871.150757
9615.712568	0.100404	0.322934	1960.108765
9615.713516	0.099954	0.322934	2054.864746
9615.714410	0.101180	0.322934	2145.320068
9616.710098	0.692245	0.344639	309.433472
9616.710997	0.254780	0.344639	538.480957
9616.711934	0.249298	0.344639	772.073303
9616.712860	0.487430	0.344639	1223.433838
9616.713767	0.100887	0.344639	1314.938721
9616.714660	0.101986	0.344639	1406.012329
9616.715609	0.099690	0.344639	1500.618042
9616.716505	0.099778	0.344639	1590.019043
9616.717408	0.101682	0.344639	1681.838013
9616.718297	0.101437	0.344639	1772.015259
9616.719248	0.098950	0.344639	1866.116943
9616.720158	0.100371	0.344639	1957.454590
9616.721056	0.101927	0.344639	2048.985352
9616.721989	0.099485	0.344639	2141.804687
9617.741262	0.713914	0.328034	312.694153
9617.742234	0.255612	0.328034	561.148560
9617.743145	0.249133	0.328034	788.109009
9617.744055	0.487899	0.328034	1232.097290
9617.744940	0.100397	0.328034	1320.948364
9617.745890	0.099767	0.328034	1415.726807
9617.746787	0.100646	0.328034	1506.006104
9617.747688	0.102682	0.328034	1598.522461
9617.748622	0.099932	0.328034	1691.858643
9617.749522	0.099342	0.328034	1781.266479
9617.750419	0.101228	0.328034	1872.067993
9617.751310	0.102173	0.328034	1963.104004
9617.752267	0.099064	0.328034	2057.907959
9617.753159	0.099338	0.328034	2146.517822
9618.746853	0.664900	0.339998	301.199646
9618.747756	0.254707	0.339998	531.200073
9618.748688	0.248837	0.339998	763.115845
9618.749600	0.428573	0.339998	1153.974365
9618.750551	0.100382	0.339998	1249.437744
9618.751474	0.102341	0.339998	1343.898804
9618.752365	0.100748	0.339998	1433.665527
9618.753319	0.100785	0.339998	1529.814331
9618.754214	0.101239	0.339998	1620.423218
9618.755127	0.101056	0.339998	1712.687256
9618.756020	0.100895	0.339998	1802.786255
9618.756954	0.100583	0.339998	1896.731201
9618.757872	0.100605	0.339998	1989.087036
9618.758767	0.100624	0.339998	2079.145264
9619.774987	0.715726	0.345872	359.294617
9619.775913	0.255172	0.345872	595.583984
9619.776820	0.248412	0.345872	820.893555
9619.777721	0.484193	0.345872	1257.151611
9619.778663	0.098972	0.345872	1350.383423
9619.779565	0.100144	0.345872	1440.713379
9619.780463	0.101927	0.345872	1532.244263
9619.781348	0.101177	0.345872	1621.785645
9619.782282	0.099683	0.345872	1714.889160
9619.783191	0.100470	0.345872	1806.216309
9619.784092	0.101554	0.345872	1897.716431
9619.785023	0.100144	0.345872	1990.950562
9619.785932	0.098972	0.345872	2080.916260
9619.786838	0.102246	0.345872	2173.551270
9620.787657	0.728287	0.345018	319.718170
9620.788627	0.255341	0.345018	567.398560
9620.789546	0.248734	0.345018	795.985229
9620.790462	0.484541	0.345018	1239.824829
9620.791350	0.100265	0.345018	1328.860107
9620.792302	0.099547	0.345018	1423.628906
9620.793212	0.100005	0.345018	1514.633301
9620.794109	0.102491	0.345018	1606.568115
9620.795040	0.099657	0.345018	1699.348755
9620.795945	0.099247	0.345018	1789.167114
9620.796845	0.101733	0.345018	1880.727173
9620.797731	0.100675	0.345018	1969.925293
9620.798667	0.099214	0.345018	2062.789551
9620.799573	0.099628	0.345018	2153.052246
9621.801469	0.715562	0.362347	349.909576
9621.802383	0.255289	0.362347	583.244019
9621.803284	0.248840	0.362347	807.449158
9621.804186	0.474913	0.362347	1235.821045
9621.805142	0.098694	0.362347	1330.172363
9621.806037	0.100063	0.362347	1419.729126
9621.806936	0.100770	0.362347	1510.321533
9621.807826	0.100031	0.362347	1599.348633
9621.808777	0.099130	0.362347	1693.620972
9621.809679	0.100573	0.362347	1784.337402
9621.810579	0.101785	0.362347	1875.943604
9621.811504	0.099778	0.362347	1968.238037
9621.812412	0.098928	0.362347	2058.064941
9621.813307	0.100583	0.362347	2148.087158
9622.828540	0.608419	0.329988	289.607544
9622.829454	0.255220	0.329988	522.878357
9622.830354	0.249243	0.329988	747.197205
9622.831290	0.401492	0.329988	1122.993408
9622.832200	0.099170	0.329988	1213.238037
9622.833110	0.101807	0.329988	1305.882080
9622.834010	0.102590	0.329988	1398.213379
9622.834943	0.100221	0.329988	1491.719482
9622.835845	0.099734	0.329988	1581.679443
9622.836749	0.101404	0.329988	1673.348511
9622.837637	0.100459	0.329988	1762.556030
9622.838587	0.099067	0.329988	1856.670044
9622.839499	0.099796	0.329988	1947.684082
9622.840393	0.102550	0.329988	2039.363770
9623.827916	0.705688	0.355979	309.091553
9623.828857	0.255106	0.355979	549.146484
9623.829784	0.249177	0.355979	780.133789
9623.830690	0.487544	0.355979	1221.848633
9623.831602	0.099855	0.355979	1312.916138
9623.832540	0.100291	0.355979	1406.988647
9623.833433	0.101389	0.355979	1497.529175
9623.834325	0.101627	0.355979	1588.180664
9623.835257	0.099448	0.355979	1680.866455
9623.836174	0.100393	0.355979	1772.926880
9623.837070	0.100474	0.355979	1862.951294
9623.837958	0.100126	0.355979	1951.862915
9623.838905	0.098679	0.355979	2045.312134
9623.839803	0.100521	0.355979	2135.580322
9624.871421	0.563342	0.324042	274.347687
9624.872344	0.255568	0.324042	510.236572
9624.873260	0.248840	0.324042	738.174316
9624.874158	0.487240	0.324042	1175.715820
9624.875103	0.098965	0.324042	1269.237549
9624.876013	0.100792	0.324042	1360.958496
9624.876901	0.101246	0.324042	1450.865234
9624.877831	0.100375	0.324042	1544.213745
9624.878737	0.099628	0.324042	1634.476440
9624.879636	0.100510	0.324042	1724.835205
9624.880530	0.102433	0.324042	1816.410156
9624.881461	0.099364	0.324042	1908.918091
9624.882362	0.099884	0.324042	1998.913574
9624.883263	0.101345	0.324042	2090.225586
9625.858521	0.686700	0.340421	307.641815
9625.859438	0.254729	0.340421	541.228333
9625.860340	0.249229	0.340421	766.032471
9625.861299	0.484329	0.340421	1230.503662
9625.862197	0.099097	0.340421	1319.492432
9625.863095	0.101851	0.340421	1410.954224
9625.863981	0.100796	0.340421	1500.259399
9625.864927	0.099803	0.340421	1594.673462
9625.865836	0.100378	0.340421	1685.917480
9625.866740	0.102488	0.340421	1778.566406
9625.867668	0.100177	0.340421	1871.530640
9625.868578	0.099287	0.340421	1961.881958
9625.869480	0.101235	0.340421	2053.196289
9625.870374	0.100148	0.340421	2142.728271
9626.910165	0.681797	0.337203	304.081421
9626.911061	0.255139	0.337203	532.686157
9626.912004	0.249467	0.337203	767.933105
9626.912931	0.489598	0.337203	1221.790771
9626.913855	0.101539	0.337203	1315.613037
9626.914746	0.101906	0.337203	1406.410889
9626.915702	0.100594	0.337203	1502.579224
9626.916601	0.102473	0.337203	1594.702637
9626.917487	0.102491	0.337203	1685.510010
9626.918411	0.100671	0.337203	1778.530396
9626.919331	0.100360	0.337203	1870.861694
9626.920230	0.100891	0.337203	1961.562744
9626.921119	0.101089	0.337203	2051.430664
9626.922046	0.099254	0.337203	2143.439209
9627.896263	0.728558	0.335624	318.380005
9627.897157	0.254733	0.335624	546.111023
9627.898150	0.248859	0.335624	793.227661
9627.899071	0.481626	0.335624	1236.805176
9627.899968	0.100928	0.335624	1327.337402
9627.900904	0.100159	0.335624	1421.085937
9627.901800	0.099789	0.335624	1510.496704
9627.902702	0.101389	0.335624	1601.949707
9627.903592	0.101565	0.335624	1692.342529
9627.904546	0.099272	0.335624	1787.048462
9627.905449	0.099595	0.335624	1876.982544
9627.906355	0.100833	0.335624	1968.336792
9627.907245	0.100496	0.335624	2057.777832
9627.908203	0.098818	0.335624	2152.445801
9628.944854	0.690948	0.347556	304.017334
9628.945770	0.254982	0.347556	537.580566
9628.946677	0.249521	0.347556	763.896545
9628.947630	0.482490	0.347556	1223.709717
9628.948536	0.099210	0.347556	1313.594116
9628.949440	0.102682	0.347556	1406.418579
9628.950327	0.101261	0.347556	1496.237061
9628.951262	0.099778	0.347556	1589.529297
9628.952169	0.100422	0.347556	1680.612427
9628.953063	0.101367	0.347556	1771.234741
9628.953976	0.099888	0.347556	1862.432251
9628.954896	0.098914	0.347556	1953.432739
9628.955804	0.100723	0.347556	2044.888916
9628.956701	0.101506	0.347556	2135.940186
9629.935057	0.705663	0.343624	311.197327
9629.935956	0.254410	0.343624	539.912231
9629.936854	0.249342	0.343624	763.821411
9629.937822	0.488987	0.343624	1237.160645
9629.938726	0.099507	0.343624	1327.114868
9629.939629	0.102177	0.343624	1419.380249
9629.940557	0.100825	0.343624	1512.946045
9629.941462	0.099221	0.343624	1602.741211
9629.942371	0.101056	0.343624	1694.601074
9629.943262	0.101338	0.343624	1784.893188
9629.944198	0.099452	0.343624	1877.980225
9629.945101	0.099335	0.343624	1967.679443
9629.946009	0.101327	0.343624	2059.684326
9629.946899	0.100481	0.343624	2149.112305
9630.972375	0.687180	0.355362	311.292603
9630.973272	0.255099	0.355362	540.116333
9630.974226	0.249119	0.355362	777.775513
9630.975144	0.480868	0.355362	1219.212280
9630.976053	0.099833	0.355362	1309.960205
9630.976942	0.100496	0.355362	1399.300781
9630.977888	0.099683	0.355362	1493.600586
9630.978799	0.101404	0.355362	1585.979492
9630.979692	0.101613	0.355362	1676.719482
9630.980636	0.100382	0.355362	1771.480225
9630.981534	0.099338	0.355362	1860.686035
9630.982435	0.101111	0.355362	1951.786865
9630.983325	0.101796	0.355362	2042.385010
9630.984259	0.099049	0.355362	2134.896973
9631.975913	0.673824	0.338443	311.306885
9631.976808	0.255205	0.338443	539.715454
9631.977759	0.249291	0.338443	776.790955
9631.978679	0.463865	0.338443	1203.546509
9631.979586	0.102191	0.338443	1296.233887
9631.980480	0.101235	0.338443	1386.738281
9631.981425	0.099818	0.338443	1481.066406
9631.982329	0.101316	0.338443	1572.656006
9631.983216	0.101367	0.338443	1662.568726
9631.984141	0.100126	0.338443	1755.185059
9631.985050	0.099500	0.338443	1845.630127
9631.985946	0.101342	0.338443	1936.432129
9631.986833	0.101184	0.338443	2026.182373
9631.987780	0.099082	0.338443	2120.012939
9633.004025	0.581653	0.357243	278.030060
9633.004939	0.254725	0.357243	510.849060
9633.005850	0.248372	0.357243	737.115601
9633.006754	0.478008	0.357243	1169.234619
9633.007708	0.098690	0.357243	1263.385010
9633.008614	0.100312	0.357243	1354.268066
9633.009515	0.101089	0.357243	1445.349121
9633.010442	0.100236	0.357243	1538.267578
9633.011341	0.099408	0.357243	1627.635376
9633.012236	0.102228	0.357243	1719.129272
9633.013124	0.101536	0.357243	1809.292969
9633.014063	0.099163	0.357243	1902.406616
9633.014973	0.100232	0.357243	1993.617676
9633.015875	0.100935	0.357243	2084.661133
9634.013694	0.722358	0.329065	353.955627
9634.014611	0.255194	0.329065	587.968628
9634.015519	0.248741	0.329065	813.825867
9634.016418	0.475679	0.329065	1241.461060
9634.017369	0.099078	0.329065	1335.684570
9634.018261	0.100466	0.329065	1425.300537
9634.019168	0.102535	0.329065	1518.300171
9634.020058	0.100133	0.329065	1607.418579
9634.021008	0.099371	0.329065	1701.821289
9634.021922	0.100587	0.329065	1793.757935
9634.022816	0.101927	0.329065	1884.881104
9634.023746	0.098947	0.329065	1976.901367
9634.024647	0.098818	0.329065	2065.936768
9634.025546	0.100737	0.329065	2156.499512
9635.035593	0.719132	0.350923	313.541595
9635.036496	0.254634	0.350923	543.475891
9635.037447	0.249071	0.350923	780.342468
9635.038375	0.475847	0.350923	1221.928711
9635.039275	0.101583	0.350923	1313.353638
9635.040208	0.100137	0.350923	1406.781250
9635.041120	0.099360	0.350923	1497.397949
9635.042023	0.102341	0.350923	1589.812134
9635.042915	0.102253	0.350923	1681.022217
9635.043860	0.099005	0.350923	1774.582031
9635.044765	0.099327	0.350923	1864.473267
9635.045662	0.101385	0.350923	1955.416016
9635.046557	0.101136	0.350923	2045.933105
9635.047504	0.098994	0.350923	2139.680664
9636.050422	0.590380	0.322318	281.020691
9636.051340	0.254894	0.322318	515.013184
9636.052251	0.248690	0.322318	741.569946
9636.053149	0.450817	0.322318	1146.403320
9636.054096	0.098712	0.322318	1239.883789
9636.055011	0.100748	0.322318	1332.068481
9636.055899	0.101763	0.322318	1422.433716
9636.056827	0.099723	0.322318	1514.976562
9636.057738	0.099302	0.322318	1605.440430
9636.058644	0.101605	0.322318	1697.494751
9636.059536	0.101100	0.322318	1787.675781
9636.060488	0.098987	0.322318	1881.911255
9636.061385	0.099847	0.322318	1971.474365
9636.062282	0.101228	0.322318	2062.275879
9637.070331	0.715199	0.343725	347.586670
9637.071254	0.255132	0.343725	583.073364
9637.072155	0.248705	0.343725	807.156372
9637.073059	0.471749	0.343725	1233.617676
9637.074007	0.098756	0.343725	1327.238525
9637.074920	0.100774	0.343725	1419.245117
9637.075820	0.101836	0.343725	1510.897461
9637.076710	0.101514	0.343725	1601.244629
9637.077651	0.099229	0.343725	1694.618652
9637.078546	0.101345	0.343725	1785.322632
9637.079439	0.101195	0.343725	1875.689819
9637.080377	0.099979	0.343725	1969.470337
9637.081272	0.099866	0.343725	2058.850098
9637.082180	0.100591	0.343725	2150.186523
9638.088153	0.687235	0.310116	309.943024
9638.089054	0.254960	0.310116	539.661743
9638.089997	0.249536	0.310116	774.974304
9638.090914	0.482098	0.310116	1217.058594
9638.091816	0.101880	0.310116	1308.954224
9638.092704	0.100759	0.310116	1398.428467
9638.093644	0.099536	0.310116	1491.992432
9638.094537	0.100657	0.310116	1581.878906
9638.095439	0.102056	0.310116	1673.933105
9638.096350	0.100518	0.310116	1765.504639
9638.097287	0.099342	0.310116	1858.588135
9638.098194	0.101624	0.310116	1950.760742
9638.099089	0.101334	0.310116	2041.454834
9638.100017	0.099459	0.310116	2133.752930
9639.104984	0.715078	0.339334	318.209747
9639.105877	0.254601	0.339334	545.568298
9639.106840	0.248694	0.339334	785.060486
9639.107762	0.447349	0.339334	1197.515869
9639.108655	0.100803	0.339334	1287.533203
9639.109550	0.099902	0.339334	1376.945801
9639.110488	0.099587	0.339334	1470.358765
9639.111401	0.101038	0.339334	1562.606079
9639.112300	0.102448	0.339334	1654.706421
9639.113232	0.099983	0.339334	1747.890503
9639.114135	0.099452	0.339334	1837.695557
9639.115032	0.101195	0.339334	1928.467529
9639.115920	0.100620	0.339334	2017.818237
9639.116870	0.099203	0.339334	2112.061035
9640.124883	0.720264	0.309069	318.356537
9640.125785	0.255143	0.309069	548.495361
9640.126738	0.249368	0.309069	786.142761
9640.127669	0.469702	0.309069	1223.435425
9640.128572	0.100865	0.309069	1314.516968
9640.129462	0.100847	0.309069	1404.270996
9640.130407	0.099866	0.309069	1498.644043
9640.131315	0.102308	0.309069	1591.540039
9640.132209	0.102202	0.309069	1682.908813
9640.133146	0.100195	0.309069	1776.791870
9640.134043	0.099419	0.309069	1865.970703
9640.134940	0.101836	0.309069	1957.317505
9640.135831	0.100953	0.309069	2047.266968
9640.136778	0.099031	0.309069	2141.049072
9641.141718	0.692834	0.340159	307.618530
9641.142618	0.254729	0.340159	536.874634
9641.143582	0.248833	0.340159	776.749634
9641.144515	0.461576	0.340159	1207.399902
9641.145409	0.100415	0.340159	1297.170898
9641.146351	0.100309	0.340159	1391.661865
9641.147246	0.099716	0.340159	1480.907349
9641.148146	0.101862	0.340159	1572.582764
9641.149038	0.101620	0.340159	1663.227661
9641.149977	0.099547	0.340159	1756.702393
9641.150883	0.100100	0.340159	1847.393066
9641.151784	0.101964	0.340159	1939.262695
9641.152684	0.099855	0.340159	2029.131958
9641.153609	0.098990	0.340159	2120.698242
9642.160591	0.700624	0.314052	308.975067
9642.161496	0.254908	0.314052	539.667236
9642.162396	0.249675	0.314052	764.375000
9642.163362	0.484706	0.314052	1232.600830
9642.164266	0.100466	0.314052	1323.422363
9642.165161	0.101649	0.314052	1414.398437
9642.166088	0.100459	0.314052	1507.523926
9642.166987	0.099763	0.314052	1597.211060
9642.167898	0.101261	0.314052	1689.459839
9642.168791	0.100862	0.314052	1779.529419
9642.169725	0.099437	0.314052	1872.403809
9642.170626	0.099631	0.314052	1962.171631
9642.171528	0.101653	0.314052	2053.862549
9642.172417	0.100477	0.314052	2143.186768
9643.178437	0.728408	0.348131	316.129181
9643.179400	0.254626	0.348131	561.334473
9643.180331	0.248346	0.348131	792.544556
9643.181242	0.457917	0.348131	1209.707397
9643.182132	0.101261	0.348131	1299.829712
9643.183086	0.099749	0.348131	1394.989868
9643.183976	0.100181	0.348131	1484.150635
9643.184872	0.101697	0.348131	1575.270996
9643.185762	0.100452	0.348131	1664.672974
9643.186721	0.099382	0.348131	1759.980591
9643.187627	0.100082	0.348131	1850.654663
9643.188526	0.101221	0.348131	1941.652100
9643.189461	0.099778	0.348131	2034.944336
9643.190362	0.098807	0.348131	2123.969727
9644.193243	0.686631	0.323982	306.924011
9644.194155	0.255377	0.323982	539.828003
9644.195058	0.249727	0.323982	765.331055
9644.196012	0.486215	0.323982	1229.179810
9644.196918	0.098990	0.323982	1318.865234
9644.197818	0.101982	0.323982	1410.649414
9644.198736	0.101323	0.323982	1503.664185
9644.199629	0.101693	0.323982	1594.476074
9644.200571	0.101484	0.323982	1690.074341
9644.201484	0.101272	0.323982	1782.535645
9644.202414	0.101873	0.323982	1877.277100
9644.203305	0.101814	0.323982	1967.993286
9644.204254	0.101082	0.323982	2063.919678
9644.205171	0.100649	0.323982	2156.215088
9645.215178	0.728324	0.356357	319.734222
9645.216141	0.255300	0.356357	565.588379
9645.217064	0.248760	0.356357	795.193604
9645.217984	0.481564	0.356357	1238.232178
9645.218870	0.099705	0.356357	1326.570435
9645.219817	0.099690	0.356357	1420.976807
9645.220724	0.101353	0.356357	1512.903564
9645.221615	0.101671	0.356357	1603.492554
9645.222558	0.100042	0.356357	1697.831665
9645.223461	0.098763	0.356357	1787.015015
9645.224361	0.101030	0.356357	1877.942261
9645.225254	0.101389	0.356357	1968.482788
9645.226183	0.098848	0.356357	2060.312256
9645.227086	0.099225	0.356357	2149.912354
9646.224864	0.717074	0.331696	324.834503
9646.225760	0.255308	0.331696	553.590088
9646.226717	0.249474	0.331696	792.336609
9646.227620	0.480842	0.331696	1226.537109
9646.228540	0.100759	0.331696	1319.235596
9646.229440	0.101228	0.331696	1410.340820
9646.230371	0.101023	0.331696	1504.393188
9646.231282	0.102458	0.331696	1597.732910
9646.232173	0.101477	0.331696	1688.148926
9646.233080	0.100587	0.331696	1779.381470
9646.234024	0.100551	0.331696	1874.301147
9646.234919	0.101953	0.331696	1965.549194
9646.235812	0.101733	0.331696	2056.397217
9646.236764	0.099650	0.331696	2151.263672
9647.253974	0.679098	0.360361	305.594055
9647.254874	0.254919	0.360361	535.021545
9647.255820	0.249016	0.360361	770.590820
9647.256742	0.484091	0.360361	1216.922363
9647.257646	0.100283	0.360361	1307.578369
9647.258535	0.101093	0.360361	1397.449585
9647.259487	0.099485	0.360361	1492.159180
9647.260397	0.100690	0.360361	1583.786865
9647.261290	0.101470	0.360361	1674.399292
9647.262217	0.100876	0.360361	1767.911743
9647.263125	0.099272	0.360361	1858.051147
9647.264025	0.101635	0.360361	1949.522217
9647.264922	0.102100	0.360361	2041.105591
9647.265858	0.099236	0.360361	2133.990234
9648.257507	0.691154	0.343406	313.783722
9648.258407	0.255004	0.343406	543.286987
9648.259369	0.249152	0.343406	782.970825
9648.260289	0.445986	0.343406	1193.278320
9648.261179	0.100719	0.343406	1282.918213
9648.262069	0.101023	0.343406	1372.828613
9648.263007	0.099778	0.343406	1466.420166
9648.263933	0.101056	0.343406	1559.997925
9648.264841	0.101605	0.343406	1652.255493
9648.265736	0.101572	0.343406	1743.162720
9648.266687	0.099503	0.343406	1837.790283
9648.267588	0.101953	0.343406	1929.650024
9648.268479	0.101184	0.343406	2019.805054
9648.269429	0.099174	0.343406	2114.020020
9649.292757	0.690828	0.354593	305.345825
9649.293679	0.254626	0.354593	540.111450
9649.294573	0.249258	0.354593	762.947937
9649.295527	0.480399	0.354593	1221.248779
9649.296434	0.098837	0.354593	1310.893677
9649.297336	0.101964	0.354593	1402.865356
9649.298228	0.101177	0.354593	1493.114990
9649.299181	0.099672	0.354593	1588.102051
9649.300088	0.100353	0.354593	1679.122070
9649.300993	0.101371	0.354593	1770.862671
9649.301907	0.100302	0.354593	1862.538208
9649.302830	0.099031	0.354593	1953.943604
9649.303742	0.100020	0.354593	2045.161377
9649.304629	0.102166	0.354593	2135.782227
9650.288076	0.704290	0.350053	310.591705
9650.289041	0.254696	0.350053	556.373413
9650.289956	0.248580	0.350053	783.824402
9650.290871	0.465234	0.350053	1209.513916
9650.291754	0.100616	0.350053	1298.358276
9650.292709	0.099441	0.350053	1393.324341
9650.293624	0.100074	0.350053	1484.892456
9650.294526	0.102415	0.350053	1577.270386
9650.295415	0.101074	0.350053	1667.125366
9650.296361	0.099437	0.350053	1761.192993
9650.297264	0.100671	0.350053	1852.099243
9650.298153	0.102836	0.350053	1943.520142
9650.299078	0.099862	0.350053	2035.892578
9650.299981	0.099276	0.350053	2125.538818
9651.331532	0.703777	0.342331	308.958038
9651.332499	0.255388	0.342331	555.918396
9651.333418	0.248481	0.342331	784.272827
9651.334327	0.479788	0.342331	1220.399780
9651.335271	0.099349	0.342331	1314.185547
9651.336174	0.099712	0.342331	1404.225342
9651.337067	0.100840	0.342331	1494.275269
9651.337956	0.101927	0.342331	1584.888794
9651.338890	0.099258	0.342331	1677.595581
9651.339790	0.099551	0.342331	1767.191284
9651.340694	0.101646	0.342331	1859.078857
9651.341580	0.100836	0.342331	1948.419678
9651.342532	0.098752	0.342331	2042.432007
9651.343446	0.099357	0.342331	2133.244141
9652.321786	0.720143	0.351427	348.549133
9652.322720	0.255271	0.351427	586.972290
9652.323630	0.248511	0.351427	813.117065
9652.324532	0.464319	0.351427	1231.932617
9652.325481	0.098705	0.351427	1325.603516
9652.326384	0.099950	0.351427	1415.858276
9652.327283	0.102122	0.351427	1507.665527
9652.328170	0.100342	0.351427	1596.668701
9652.329113	0.099426	0.351427	1690.427734
9652.330025	0.101049	0.351427	1782.583984
9652.330926	0.101664	0.351427	1874.183105
9652.331847	0.099833	0.351427	1966.129028
9652.332760	0.099247	0.351427	2056.741455
9652.333663	0.101213	0.351427	2148.137207
9653.369296	0.686429	0.338036	304.088257
9653.370201	0.254835	0.338036	534.714111
9653.371094	0.249727	0.338036	757.719910
9653.372071	0.477459	0.338036	1224.196899
9653.372971	0.099375	0.338036	1313.634399
9653.373869	0.101415	0.338036	1404.704834
9653.374757	0.100305	0.338036	1493.775879
9653.375697	0.099346	0.338036	1587.160889
9653.376614	0.100342	0.338036	1679.174316
9653.377511	0.102092	0.338036	1770.751099
9653.378440	0.099877	0.338036	1863.536621
9653.379346	0.099243	0.338036	1953.450928
9653.380246	0.101492	0.338036	2044.793457
9653.381135	0.100236	0.338036	2133.902832
9654.358540	0.550580	0.347551	278.042786
9654.359460	0.255143	0.347551	512.774170
9654.360368	0.248287	0.347551	738.219116
9654.361265	0.474155	0.347551	1163.536377
9654.362228	0.099012	0.347551	1258.885376
9654.363136	0.101038	0.347551	1350.627563
9654.364032	0.102550	0.347551	1442.512451
9654.364983	0.100419	0.347551	1538.010620
9654.365884	0.099364	0.347551	1627.537598
9654.366779	0.101301	0.347551	1718.202271
9654.367667	0.100759	0.347551	1807.676514
9654.368602	0.099218	0.347551	1900.444946
9654.369509	0.099620	0.347551	1990.800659
9654.370413	0.101788	0.347551	2082.817383
9655.399886	0.691468	0.341501	307.011993
9655.400794	0.255059	0.341501	538.605225
9655.401686	0.249943	0.341501	761.554016
9655.402652	0.491027	0.341501	1235.885742
9655.403557	0.100660	0.341501	1326.983398
9655.404476	0.101829	0.341501	1420.563843
9655.405363	0.101082	0.341501	1510.223145
9655.406301	0.099789	0.341501	1603.825073
9655.407196	0.100624	0.341501	1693.883301
9655.408087	0.101759	0.341501	1784.550537
9655.409025	0.099371	0.341501	1877.760864
9655.409931	0.100503	0.341501	1968.816528
9655.410842	0.101470	0.341501	2061.255371
9655.411741	0.101407	0.341501	2152.420654
9656.396252	0.687220	0.354891	309.936432
9656.397156	0.255044	0.354891	540.496155
9656.398099	0.249170	0.354891	775.463379
9656.399023	0.485002	0.354891	1223.605713
9656.399926	0.101005	0.354891	1314.812866
9656.400816	0.101653	0.354891	1405.283936
9656.401757	0.099716	0.354891	1499.116333
9656.402658	0.099965	0.354891	1589.184448
9656.403554	0.101202	0.354891	1679.861816
9656.404440	0.100975	0.354891	1769.325928
9656.405370	0.098884	0.354891	1861.288330
9656.406280	0.099752	0.354891	1952.062866
9656.407177	0.102085	0.354891	2043.633057
9656.408101	0.099298	0.354891	2135.384521
9657.428480	0.676465	0.347580	332.144226
9657.429408	0.255608	0.347580	569.348389
9657.430319	0.248983	0.347580	796.171997
9657.431222	0.473577	0.347580	1223.811768
9657.432168	0.099060	0.347580	1317.522583
9657.433065	0.101115	0.347580	1408.222290
9657.433957	0.102235	0.347580	1499.416016
9657.434860	0.100540	0.347580	1590.203247
9657.435781	0.099836	0.347580	1682.152588
9657.436686	0.101111	0.347580	1773.657959
9657.437576	0.100920	0.347580	1863.477173
9657.438501	0.099335	0.347580	1955.361816
9657.439416	0.100199	0.347580	2047.043823
9657.440319	0.101144	0.347580	2138.376709
9658.438139	0.610005	0.363709	293.412354
9658.439052	0.254894	0.363709	526.130371
9658.439953	0.248789	0.363709	750.289307
9658.440856	0.483567	0.363709	1186.950195
9658.441806	0.098635	0.363709	1280.653687
9658.442710	0.100602	0.363709	1371.597656
9658.443608	0.101697	0.363709	1462.921387
9658.444535	0.100338	0.363709	1555.934814
9658.445438	0.099672	0.363709	1645.938354
9658.446337	0.100931	0.363709	1736.675659
9658.447224	0.101547	0.363709	1826.747559
9658.448170	0.099327	0.363709	1920.711304
9658.449065	0.099888	0.363709	2010.110840
9658.449973	0.101514	0.363709	2102.285156
9659.456969	0.713771	0.356651	309.776489
9659.457907	0.254996	0.356651	548.963013
9659.458833	0.249159	0.356651	779.684204
9659.459755	0.479784	0.356651	1222.045044
9659.460643	0.100122	0.356651	1310.953491
9659.461600	0.099792	0.356651	1406.454834
9659.462510	0.100378	0.356651	1497.799194
9659.463403	0.102477	0.356651	1589.311035
9659.464341	0.100349	0.356651	1683.438477
9659.465248	0.099335	0.356651	1773.535034
9659.466154	0.101737	0.356651	1865.708862
9659.467054	0.101536	0.356651	1957.090942
9659.467980	0.099543	0.356651	2049.268066
9659.468884	0.099474	0.356651	2139.192383
9660.478943	0.673586	0.350327	303.787476
9660.479850	0.254930	0.350327	535.009338
9660.480746	0.249547	0.350327	758.603577
9660.481716	0.442921	0.350327	1188.237061
9660.482617	0.100404	0.350327	1278.701172
9660.483519	0.101466	0.350327	1370.223511
9660.484410	0.100243	0.350327	1459.539917
9660.485360	0.099609	0.350327	1554.168823
9660.486263	0.101169	0.350327	1645.524780
9660.487152	0.100902	0.350327	1735.226807
9660.488091	0.100283	0.350327	1829.392700
9660.488996	0.099613	0.350327	1919.542480
9660.489890	0.101093	0.350327	2009.919189
9660.490779	0.100715	0.350327	2099.455078
9661.489612	0.704766	0.358246	308.687347
9661.490506	0.254736	0.358246	536.421631
9661.491483	0.248954	0.358246	779.649536
9661.492410	0.479008	0.358246	1223.689575
9661.493304	0.102458	0.358246	1315.287476
9661.494244	0.100195	0.358246	1409.471069
9661.495152	0.099536	0.358246	1499.849854
9661.496052	0.101689	0.358246	1591.370361
9661.496937	0.101320	0.358246	1681.038208
9661.497873	0.099364	0.358246	1774.042969
9661.498778	0.099880	0.358246	1864.434692
9661.499683	0.101001	0.358246	1955.840576
9661.500575	0.101019	0.358246	2045.949829
9661.501520	0.098954	0.358246	2139.461182
9662.518745	0.672986	0.339636	301.497650
9662.519648	0.254766	0.339636	531.550964
9662.520562	0.249207	0.339636	759.325745
9662.521507	0.478953	0.339636	1211.936035
9662.522416	0.100327	0.339636	1303.133423
9662.523302	0.101232	0.339636	1392.824707
9662.524231	0.099851	0.339636	1485.586304
9662.525136	0.099789	0.339636	1575.895142
9662.526041	0.102422	0.339636	1668.586914
9662.526930	0.100763	0.339636	1758.165161
9662.527887	0.099375	0.339636	1853.267090
9662.528796	0.100181	0.339636	1944.331299
9662.529697	0.101462	0.339636	2035.748901
9662.530615	0.100188	0.339636	2127.721436
9663.525331	0.686993	0.356708	306.399048
9663.526235	0.254839	0.356708	536.773376
9663.527158	0.249331	0.356708	766.905945
9663.528117	0.486083	0.356708	1233.059326
9663.529024	0.100833	0.356708	1324.514404
9663.529924	0.102239	0.356708	1416.529297
9663.530869	0.100195	0.356708	1511.213867
9663.531769	0.099767	0.356708	1601.004028
9663.532667	0.102458	0.356708	1693.011719
9663.533551	0.100496	0.356708	1781.849854
9663.534488	0.099144	0.356708	1874.748047
9663.535396	0.099954	0.356708	1965.505859
9663.536292	0.101748	0.356708	2056.672119
9663.537219	0.099543	0.356708	2148.948975
9664.554447	0.691912	0.336139	307.208771
9664.555360	0.254557	0.336139	539.619202
9664.556266	0.249232	0.336139	765.423584
9664.557217	0.452219	0.336139	1195.484131
9664.558113	0.098643	0.336139	1283.867920
9664.559009	0.101799	0.336139	1375.080078
9664.559892	0.101019	0.336139	1464.280151
9664.560822	0.099741	0.336139	1557.039429
9664.561735	0.100258	0.336139	1648.574585
9664.562641	0.102682	0.336139	1741.604370
9664.563530	0.100203	0.336139	1830.684570
9664.564484	0.099452	0.336139	1925.561646
9664.565392	0.099950	0.336139	2016.316162
9664.566291	0.101067	0.336139	2107.175293
9665.561036	0.701019	0.357187	309.149506
9665.562006	0.255626	0.357187	557.106934
9665.562917	0.248958	0.357187	783.907227
9665.563819	0.470702	0.357187	1208.480347
9665.564756	0.099174	0.357187	1301.406006
9665.565665	0.101294	0.357187	1393.482178
9665.566584	0.101320	0.357187	1486.594849
9665.567477	0.101257	0.357187	1577.017578
9665.568417	0.099727	0.357187	1670.760498
9665.569319	0.100598	0.357187	1761.500000
9665.570242	0.101320	0.357187	1855.017944
9665.571137	0.099811	0.357187	1944.348633
9665.572081	0.099694	0.357187	2038.459351
9665.572980	0.101876	0.357187	2130.046143
9666.585058	0.649651	0.339938	300.138702
9666.585960	0.255231	0.339938	530.356812
9666.586895	0.249291	0.339938	763.443665
9666.587833	0.486973	0.339938	1220.223999
9666.588743	0.100327	0.339938	1311.521729
9666.589633	0.101210	0.339938	1401.598389
9666.590569	0.099840	0.339938	1495.048706
9666.591474	0.099719	0.339938	1585.294556
9666.592373	0.102001	0.339938	1676.993164
9666.593262	0.101602	0.339938	1767.316895
9666.594198	0.099232	0.339938	1860.198242
9666.595105	0.099800	0.339938	1950.716675
9666.596006	0.102147	0.339938	2042.751343
9666.596943	0.100756	0.339938	2137.159424
9667.597793	0.687228	0.365622	310.626953
9667.598696	0.255304	0.365622	541.166382
9667.599589	0.249851	0.365622	764.283386
9667.600553	0.477550	0.365622	1224.641602
9667.601462	0.099258	0.365622	1314.866943
9667.602375	0.100997	0.365622	1407.077515
9667.603265	0.101104	0.365622	1497.059692
9667.604224	0.099283	0.365622	1592.272461
9667.605134	0.100767	0.365622	1683.970093
9667.606030	0.100558	0.365622	1774.069946
9667.606956	0.099602	0.365622	1866.301392
9667.607848	0.098774	0.365622	1954.408203
9667.608747	0.101250	0.365622	2045.432007
9667.609632	0.101957	0.365622	2135.663818
9668.616687	0.729375	0.340884	344.994385
9668.617624	0.255103	0.340884	584.025452
9668.618542	0.248302	0.340884	811.966675
9668.619448	0.465582	0.340884	1233.784180
9668.620399	0.099133	0.340884	1328.059937
9668.621302	0.099745	0.340884	1418.129517
9668.622202	0.101298	0.340884	1509.297363
9668.623094	0.100085	0.340884	1598.573608
9668.624028	0.099364	0.340884	1691.379639
9668.624940	0.099727	0.340884	1782.330322
9668.625838	0.101367	0.340884	1873.358032
9668.626766	0.100854	0.340884	1966.951050
9668.627667	0.099210	0.340884	2056.339355
9668.628583	0.101364	0.340884	2149.188232
9669.634527	0.673359	0.367226	303.011688
9669.635429	0.254766	0.367226	532.810242
9669.636321	0.249412	0.367226	755.285400
9669.637289	0.447689	0.367226	1188.648560
9669.638190	0.099276	0.367226	1278.096313
9669.639090	0.101569	0.367226	1369.508057
9669.640025	0.100397	0.367226	1463.379028
9669.640926	0.099474	0.367226	1553.005005
9669.641825	0.101063	0.367226	1643.860840
9669.642714	0.101561	0.367226	1734.148804
9669.643675	0.099152	0.367226	1829.433472
9669.644570	0.099646	0.367226	1918.616699
9669.645468	0.100990	0.367226	2009.305664
9669.646354	0.101708	0.367226	2099.418701
9670.649288	0.719707	0.343612	313.072540
9670.650222	0.254974	0.343612	551.218628
9670.651150	0.249159	0.343612	782.438110
9670.652070	0.486852	0.343612	1230.341797
9670.652958	0.100433	0.343612	1319.526611
9670.653888	0.099811	0.343612	1412.350586
9670.654799	0.100646	0.343612	1504.038818
9670.655693	0.101748	0.343612	1595.001587
9670.656583	0.101008	0.343612	1684.898926
9670.657513	0.099280	0.343612	1777.229126
9670.658417	0.100466	0.343612	1868.050659
9670.659306	0.100928	0.343612	1957.775391
9670.660218	0.100657	0.343612	2049.574219
9670.661151	0.099247	0.343612	2142.171387
9671.673347	0.640232	0.357384	317.555023
9671.674257	0.255447	0.357384	550.011597
9671.675166	0.248881	0.357384	776.244080
9671.676069	0.486910	0.357384	1215.924194
9671.677024	0.098782	0.357384	1310.260742
9671.677927	0.100723	0.357384	1401.213257
9671.678814	0.103026	0.357384	1492.597412
9671.679747	0.100488	0.357384	1586.353027
9671.680661	0.099489	0.357384	1677.285522
9671.681582	0.101473	0.357384	1770.742554
9671.682477	0.102305	0.357384	1862.305298
9671.683407	0.099100	0.357384	1954.468628
9671.684314	0.099086	0.357384	2044.339355
9671.685220	0.102268	0.357384	2136.994141
9672.683013	0.721212	0.339092	357.000000
9672.683921	0.255392	0.339092	588.895752
9672.684837	0.248961	0.339092	816.944214
9672.685742	0.467981	0.339092	1240.467041
9672.686671	0.098708	0.339092	1332.167236
9672.687576	0.100001	0.339092	1422.668335
9672.688480	0.101708	0.339092	1514.612183
9672.689370	0.101477	0.339092	1604.926758
9672.690312	0.099335	0.339092	1698.500000
9672.691222	0.099965	0.339092	1789.467773
9672.692118	0.101228	0.339092	1880.168091
9672.693047	0.100067	0.339092	1973.130493
9672.693961	0.099122	0.339092	2063.728271
9672.694867	0.101594	0.339092	2155.772705
9673.708999	0.719447	0.349525	311.520569
9673.709929	0.254553	0.349525	548.255066
9673.710877	0.248588	0.349525	783.916138
9673.711799	0.488796	0.349525	1234.586426
9673.712685	0.102056	0.349525	1325.007690
9673.713627	0.100027	0.349525	1419.233032
9673.714535	0.100800	0.349525	1510.759033
9673.715440	0.102327	0.349525	1603.364624
9673.716328	0.100631	0.349525	1692.725098
9673.717258	0.099177	0.349525	1784.959961
9673.718158	0.101133	0.349525	1875.979492
9673.719046	0.101488	0.349525	1966.100830
9673.719977	0.099467	0.349525	2058.704102
9673.720898	0.099536	0.349525	2150.376953
9674.716638	0.687048	0.331797	309.171753
9674.717544	0.255026	0.331797	540.224976
9674.718457	0.249349	0.331797	767.880981
9674.719393	0.379391	0.331797	1122.990845
9674.720320	0.098679	0.331797	1214.466431
9674.721228	0.101104	0.331797	1306.268433
9674.722128	0.101755	0.331797	1397.848267
9674.723055	0.099617	0.331797	1490.192993
9674.723955	0.099595	0.331797	1579.828247
9674.724853	0.101210	0.331797	1670.714600
9674.725742	0.101400	0.331797	1760.859375
9674.726686	0.099210	0.331797	1854.513794
9674.727585	0.100133	0.331797	1944.533447
9674.728484	0.101913	0.331797	2036.153076
9675.744717	0.728324	0.345138	319.734222
9675.745613	0.254626	0.345138	547.879517
9675.746575	0.249056	0.345138	787.471741
9675.747500	0.465070	0.345138	1217.661133
9675.748400	0.100825	0.345138	1308.403809
9675.749322	0.100356	0.345138	1400.932495
9675.750230	0.099617	0.345138	1491.384521
9675.751135	0.100726	0.345138	1582.541870
9675.752026	0.101052	0.345138	1672.579468
9675.752952	0.099196	0.345138	1764.434570
9675.753859	0.099470	0.345138	1854.654053
9675.754764	0.101569	0.345138	1946.573608
9675.755654	0.100920	0.345138	2036.392822
9675.756610	0.098705	0.345138	2130.754639
9676.754408	0.659473	0.321186	305.995300
9676.755301	0.255502	0.321186	534.158325
9676.756239	0.249423	0.321186	768.116699
9676.757166	0.485098	0.321186	1217.802246
9676.758067	0.101005	0.321186	1308.807373
9676.758959	0.101671	0.321186	1399.498047
9676.759910	0.099884	0.321186	1494.487793
9676.760816	0.101038	0.321186	1586.027832
9676.761715	0.101528	0.321186	1677.301758
9676.762647	0.100598	0.321186	1771.059204
9676.763552	0.099393	0.321186	1861.010132
9676.764450	0.101122	0.321186	1951.817505
9676.765335	0.101396	0.321186	2041.553345
9676.766274	0.098998	0.321186	2134.512207
9677.778373	0.728438	0.347551	316.870331
9677.779338	0.255081	0.347551	563.023071
9677.780260	0.248921	0.347551	792.528137
9677.781180	0.472559	0.347551	1227.281982
9677.782074	0.100419	0.347551	1317.056274
9677.783026	0.099690	0.347551	1411.961060
9677.783928	0.100437	0.347551	1502.555298
9677.784819	0.101129	0.347551	1592.661377
9677.785731	0.100411	0.347551	1684.236572
9677.786652	0.099137	0.347551	1775.541748
9677.787556	0.100049	0.347551	1865.985840
9677.788453	0.102096	0.347551	1957.565918
9677.789382	0.098943	0.347551	2049.483887
9677.790285	0.098899	0.347551	2138.789551
9678.791138	0.703491	0.323514	315.867554
9678.792035	0.255260	0.323514	544.835815
9678.792930	0.250071	0.323514	768.649170
9678.793915	0.429152	0.323514	1191.363525
9678.794817	0.099899	0.323514	1281.472168
9678.795742	0.101627	0.323514	1375.477295
9678.796641	0.101349	0.323514	1466.589966
9678.797581	0.100902	0.323514	1561.437988
9678.798504	0.101180	0.323514	1654.827515
9678.799393	0.102213	0.323514	1745.694946
9678.800296	0.101074	0.323514	1836.964966
9678.801252	0.100723	0.323514	1933.255859
9678.802170	0.100712	0.323514	2025.709229
9678.803059	0.099686	0.323514	2114.330322
9679.813085	0.677710	0.354746	301.580933
9679.814007	0.254802	0.354746	536.508606
9679.814914	0.248826	0.354746	762.193481
9679.815858	0.485878	0.354746	1220.862061
9679.816763	0.099038	0.354746	1310.491577
9679.817667	0.102195	0.354746	1402.875732
9679.818555	0.101554	0.354746	1493.055664
9679.819509	0.099152	0.354746	1587.646240
9679.820408	0.099558	0.354746	1677.148926
9679.821304	0.101536	0.354746	1768.124878
9679.822230	0.099987	0.354746	1860.712402
9679.823151	0.098954	0.354746	1951.848877
9679.824058	0.100679	0.354746	2043.164429
9679.824961	0.102023	0.354746	2135.291016
9680.830933	0.720253	0.328437	320.512451
9680.831829	0.254707	0.328437	548.729980
9680.832724	0.249745	0.328437	772.251648
9680.833708	0.468801	0.328437	1233.552124
9680.834604	0.101906	0.328437	1324.859497
9680.835493	0.101268	0.328437	1414.887085
9680.836431	0.100356	0.328437	1509.021484
9680.837352	0.100822	0.328437	1601.878174
9680.838255	0.100880	0.328437	1692.972900
9680.839140	0.100789	0.328437	1782.170776
9680.840080	0.099456	0.328437	1875.659058
9680.840997	0.099869	0.328437	1967.239258
9680.841919	0.102671	0.328437	2061.901855
9680.842809	0.100774	0.328437	2151.590576
9681.844681	0.714316	0.360837	312.870605
9681.845667	0.255066	0.360837	564.365601
9681.846580	0.248551	0.360837	791.292664
9681.847495	0.476763	0.360837	1227.530518
9681.848389	0.100371	0.360837	1317.262329
9681.849341	0.099796	0.360837	1412.268311
9681.850253	0.100404	0.360837	1503.836792
9681.851151	0.100774	0.360837	1594.331787
9681.852072	0.099503	0.360837	1685.974243
9681.852978	0.099100	0.360837	1775.759155
9681.853886	0.100129	0.360837	1866.676636
9681.854776	0.101155	0.360837	1956.704346
9681.855723	0.098815	0.360837	2050.281738
9681.856618	0.098877	0.360837	2138.776611
9682.868744	0.702140	0.339144	349.665680
9682.869674	0.255524	0.339144	587.302734
9682.870589	0.248588	0.339144	814.760437
9682.871489	0.425577	0.339144	1197.780029
9682.872449	0.098837	0.339144	1292.663208
9682.873346	0.099946	0.339144	1382.315063
9682.874243	0.101960	0.339144	1473.773560
9682.875128	0.100616	0.339144	1562.819092
9682.876066	0.099500	0.339144	1656.149658
9682.876968	0.100016	0.339144	1746.364014
9682.877865	0.101415	0.339144	1837.333130
9682.878802	0.099437	0.339144	1930.505859
9682.879709	0.099012	0.339144	2020.310181
9682.880610	0.101133	0.339144	2111.430908
9683.879405	0.676102	0.364116	313.035370
9683.880326	0.254762	0.364116	547.671143
9683.881226	0.248760	0.364116	771.554932
9683.882190	0.468193	0.364116	1222.893311
9683.883082	0.098950	0.364116	1311.156860
9683.883982	0.102462	0.364116	1403.372803
9683.884878	0.101411	0.364116	1494.237183
9683.885823	0.099254	0.364116	1588.032349
9683.886728	0.099943	0.364116	1678.480469
9683.887626	0.102195	0.364116	1770.251465
9683.888561	0.100042	0.364116	1863.790283
9683.889463	0.098873	0.364116	1952.973999
9683.890374	0.100338	0.364116	2044.382080
9683.891266	0.100909	0.364116	2134.393311
9684.906450	0.691600	0.337219	307.070557
9684.907351	0.254897	0.337219	536.733154
9684.908245	0.249734	0.337219	759.995239
9684.909222	0.491389	0.337219	1240.082520
9684.910132	0.101038	0.337219	1332.026733
9684.911029	0.101678	0.337219	1423.232300
9684.911958	0.099888	0.337219	1516.027954
9684.912859	0.099584	0.337219	1605.752930
9684.913758	0.102107	0.337219	1697.547119
9684.914645	0.101682	0.337219	1787.739136
9684.915583	0.099115	0.337219	1880.708984
9684.916481	0.099869	0.337219	1970.391724
9684.917386	0.100928	0.337219	2061.731445
9684.918277	0.099474	0.337219	2150.362549
9685.910985	0.714324	0.358323	312.873810
9685.911975	0.255392	0.358323	565.711731
9685.912891	0.248676	0.358323	793.498535
9685.913804	0.453457	0.358323	1207.504761
9685.914688	0.099866	0.358323	1295.786011
9685.915628	0.099851	0.358323	1389.645996
9685.916535	0.100345	0.358323	1480.659302
9685.917432	0.101177	0.358323	1571.414795
9685.918362	0.099998	0.358323	1664.412476
9685.919269	0.099064	0.358323	1754.263306
9685.920177	0.100305	0.358323	1845.340454
9685.921076	0.100236	0.358323	1935.452271
9685.922016	0.099045	0.358323	2028.554932
9685.922920	0.098925	0.358323	2117.982666
9686.942174	0.676868	0.338367	304.590454
9686.943092	0.254813	0.338367	538.509033
9686.944005	0.248917	0.338367	765.770508
9686.944954	0.442606	0.338367	1185.803833
9686.945865	0.099056	0.338367	1276.044189
9686.946765	0.101466	0.338367	1367.363647
9686.947654	0.102480	0.338367	1458.468750
9686.948597	0.099631	0.338367	1552.421143
9686.949503	0.099617	0.338367	1642.673828
9686.950404	0.100968	0.338367	1733.645996
9686.951292	0.100265	0.338367	1822.681274
9686.952236	0.098873	0.338367	1916.017700
9686.953138	0.100444	0.338367	2006.618530
9686.954035	0.099807	0.338367	2096.145508
9687.946712	0.693182	0.350972	307.079773
9687.947606	0.254795	0.350972	534.866455
9687.948566	0.249045	0.350972	773.950073
9687.949490	0.474584	0.350972	1212.465454
9687.950388	0.101305	0.350972	1303.437256
9687.951276	0.100796	0.350972	1392.943970
9687.952205	0.099500	0.350972	1485.379028
9687.953117	0.099880	0.350972	1576.469971
9687.954014	0.100975	0.350972	1667.044800
9687.954946	0.099360	0.350972	1759.648682
9687.955842	0.099016	0.350972	1848.367065
9687.956745	0.100635	0.350972	1939.240234
9687.957633	0.100759	0.350972	2028.714478
9687.958581	0.098914	0.350972	2122.484619
9688.973791	0.714694	0.349449	325.185577
9688.974689	0.254960	0.349449	554.139404
9688.975627	0.249456	0.349449	788.128723
9688.976556	0.484695	0.349449	1238.410156
9688.977464	0.101715	0.349449	1330.767456
9688.978354	0.102096	0.349449	1421.632812
9688.979295	0.100261	0.349449	1515.978638
9688.980206	0.101506	0.349449	1608.450928
9688.981129	0.102532	0.349449	1703.087769
9688.982018	0.100510	0.349449	1792.441406
9688.982970	0.100422	0.349449	1888.043457
9688.983864	0.101063	0.349449	1978.394043
9688.984749	0.101144	0.349449	2067.906250
9688.985679	0.099375	0.349449	2160.324951
9689.985491	0.692267	0.354766	308.058746
9689.986415	0.254769	0.354766	543.465576
9689.987320	0.249324	0.354766	769.103577
9689.988283	0.478539	0.354766	1229.936523
9689.989183	0.098672	0.354766	1318.741211
9689.990082	0.101825	0.354766	1410.281860
9689.990968	0.100994	0.354766	1499.762207
9689.991902	0.099514	0.354766	1592.708496
9689.992813	0.100400	0.354766	1684.173218
9689.993710	0.101517	0.354766	1775.234253
9689.994649	0.099987	0.354766	1869.121704
9689.995563	0.099104	0.354766	1959.702759
9689.996458	0.100367	0.354766	2049.531494
9689.997346	0.101272	0.354766	2139.460937
9691.003353	0.673250	0.359056	303.635529
9691.004250	0.255143	0.359056	532.498657
9691.005205	0.249324	0.359056	770.602844
9691.006122	0.454442	0.359056	1187.326294
9691.007026	0.100452	0.359056	1278.134644
9691.007914	0.101810	0.359056	1368.542236
9691.008875	0.099913	0.359056	1464.558960
9691.009777	0.101309	0.359056	1555.939331
9691.010667	0.102187	0.359056	1646.886230
9691.011589	0.100364	0.359056	1739.421631
9691.012504	0.099573	0.359056	1830.530762
9691.013402	0.101338	0.359056	1921.532227
9691.014290	0.100829	0.359056	2011.068237
9691.015235	0.099525	0.359056	2105.119385
9692.025295	0.690791	0.348276	304.638824
9692.026213	0.255059	0.348276	538.782593
9692.027121	0.249496	0.348276	765.324829
9692.028068	0.477770	0.348276	1217.772827
9692.028966	0.099009	0.348276	1306.682739
9692.029871	0.101265	0.348276	1398.327271
9692.030761	0.101393	0.348276	1488.566895
9692.031716	0.099653	0.348276	1583.735840
9692.032624	0.100305	0.348276	1674.812988
9692.033515	0.101733	0.348276	1765.457397
9692.034455	0.099730	0.348276	1859.203857
9692.035357	0.099012	0.348276	1948.513062
9692.036255	0.100583	0.348276	2038.837036
9692.037149	0.100594	0.348276	2128.768555
9693.031903	0.692102	0.366738	309.369598
9693.032824	0.254875	0.366738	544.109924
9693.033721	0.249445	0.366738	767.861694
9693.034670	0.487859	0.366738	1230.839722
9693.035581	0.098877	0.366738	1320.916626
9693.036481	0.101532	0.366738	1412.295410
9693.037367	0.100624	0.366738	1501.448120
9693.038301	0.099349	0.366738	1594.240479
9693.039200	0.099851	0.366738	1684.006592
9693.040096	0.101136	0.366738	1774.624878
9693.041032	0.099763	0.366738	1868.003174
9693.041928	0.099016	0.366738	1956.721558
9693.042817	0.100620	0.366738	2046.172852
9693.043709	0.101096	0.366738	2136.350586
9694.067146	0.718239	0.347306	316.024963
9694.068103	0.255077	0.347306	560.133545
9694.069021	0.248730	0.347306	788.468140
9694.069930	0.464645	0.347306	1210.830200
9694.070856	0.099104	0.347306	1302.600464
9694.071767	0.099664	0.347306	1393.394653
9694.072678	0.101210	0.347306	1485.596680
9694.073574	0.100854	0.347306	1575.962280
9694.074514	0.099426	0.347306	1669.422974
9694.075423	0.099434	0.347306	1759.808105
9694.076325	0.100591	0.347306	1850.541016
9694.077210	0.099756	0.347306	1938.824951
9694.078146	0.099163	0.347306	2031.641113
9694.079055	0.100009	0.347306	2122.548828
9695.061465	0.676593	0.363520	300.407288
9695.062387	0.254802	0.363520	535.334961
9695.063282	0.249335	0.363520	758.489502
9695.064235	0.480249	0.363520	1216.166870
9695.065141	0.098862	0.363520	1305.736084
9695.066038	0.101938	0.363520	1397.174927
9695.066929	0.101257	0.363520	1487.395264
9695.067870	0.099434	0.363520	1580.962280
9695.068765	0.099415	0.363520	1669.938965
9695.069666	0.100488	0.363520	1760.478882
9695.070554	0.100422	0.363520	1849.653931
9695.071496	0.098877	0.363520	1942.796021
9695.072409	0.099305	0.363520	2033.461914
9695.073299	0.100565	0.363520	2122.964844
9696.105941	0.714225	0.341698	315.687408
9696.106839	0.254747	0.341698	544.450500
9696.107785	0.249064	0.341698	780.064819
9696.108711	0.484918	0.341698	1229.099121
9696.109616	0.101188	0.341698	1320.674072
9696.110510	0.100605	0.341698	1410.615356
9696.111462	0.099888	0.341698	1505.708496
9696.112371	0.102217	0.341698	1598.623535
9696.113273	0.101543	0.341698	1690.215332
9696.114197	0.100192	0.341698	1782.792358
9696.115099	0.099287	0.341698	1872.349365
9696.115996	0.101272	0.341698	1963.190308
9696.116883	0.100690	0.341698	2052.501953
9696.117814	0.098833	0.341698	2144.515381
9697.094154	0.640258	0.352071	323.330048
9697.095078	0.254652	0.352071	558.628540
9697.095984	0.248130	0.352071	783.434204
9697.096889	0.485145	0.352071	1222.490723
9697.097831	0.098958	0.352071	1315.708740
9697.098734	0.100594	0.352071	1406.545532
9697.099633	0.101763	0.352071	1498.030151
9697.100558	0.099884	0.352071	1590.422852
9697.101466	0.099283	0.352071	1680.572266
9697.102370	0.101268	0.352071	1772.118774
9697.103268	0.100723	0.352071	1862.567749
9697.104207	0.099166	0.352071	1955.684814
9697.105105	0.098833	0.352071	2044.436890
9697.106005	0.100466	0.352071	2134.856445
9698.143699	0.714760	0.345996	315.208954
9698.144626	0.254469	0.345996	551.101746
9698.145566	0.248467	0.345996	784.660522
9698.146474	0.468772	0.345996	1210.305420
9698.147360	0.100668	0.345996	1299.497070
9698.148293	0.099946	0.345996	1392.746948
9698.149196	0.101470	0.345996	1484.374146
9698.150114	0.101301	0.345996	1577.368652
9698.151004	0.101627	0.345996	1667.816895
9698.151960	0.099979	0.345996	1763.397095
9698.152863	0.101133	0.345996	1854.719971
9698.153753	0.101104	0.345996	1944.702148
9698.154681	0.099485	0.345996	2037.024048
9698.155598	0.100404	0.345996	2129.094482
9699.130851	0.650076	0.351052	293.834198
9699.131762	0.255267	0.351052	526.382690
9699.132665	0.249456	0.351052	751.641052
9699.133579	0.398613	0.351052	1115.973633
9699.134512	0.098650	0.351052	1208.014038
9699.135424	0.100492	0.351052	1299.662720
9699.136324	0.102671	0.351052	1392.066528
9699.137255	0.099657	0.351052	1484.847168
9699.138166	0.099573	0.351052	1575.557983
9699.139071	0.101276	0.351052	1667.212402
9699.139960	0.101166	0.351052	1757.148804
9699.140902	0.099137	0.351052	1850.535767
9699.141807	0.099965	0.351052	1941.003784
9699.142701	0.100496	0.351052	2030.846802
9700.178382	0.693409	0.355346	306.486969
9700.179286	0.254956	0.355346	536.967224
9700.180231	0.249569	0.355346	772.809998
9700.181160	0.488467	0.355346	1226.595581
9700.182069	0.100378	0.355346	1317.839600
9700.182961	0.101946	0.355346	1408.775269
9700.183890	0.099661	0.355346	1501.359985
9700.184799	0.100173	0.355346	1592.417603
9700.185705	0.101360	0.355346	1684.249634
9700.186598	0.100283	0.355346	1773.802490
9700.187547	0.098906	0.355346	1867.664551
9700.188457	0.099697	0.355346	1958.389038
9700.189357	0.101554	0.355346	2049.787598
9700.190296	0.099998	0.355346	2143.685303
9701.166536	0.706230	0.358545	310.035187
9701.167517	0.255527	0.358545	560.707520
9701.168428	0.248676	0.358545	787.250916
9701.169328	0.485160	0.358545	1223.894775
9701.170271	0.100009	0.358545	1318.202881
9701.171169	0.099053	0.358545	1407.152222
9701.172060	0.100660	0.358545	1496.840576
9701.172948	0.102162	0.358545	1587.560303
9701.173881	0.099390	0.358545	1680.290894
9701.174790	0.099631	0.358545	1770.855835
9701.175691	0.101499	0.358545	1862.306396
9701.176581	0.101755	0.358545	1952.868652
9701.177533	0.099346	0.358545	2047.445801
9701.178442	0.099792	0.358545	2138.157227
9702.210055	0.715514	0.359000	356.325958
9702.210978	0.255103	0.359000	591.785645
9702.211891	0.248247	0.359000	818.435181
9702.212800	0.481377	0.359000	1256.006836
9702.213753	0.099045	0.359000	1350.397095
9702.214662	0.100360	0.359000	1441.624390
9702.215559	0.102539	0.359000	1533.601929
9702.216445	0.100203	0.359000	1622.381470
9702.217379	0.099272	0.359000	1715.101929
9702.218285	0.101107	0.359000	1806.705078
9702.219185	0.099869	0.359000	1896.587524
9702.220125	0.099646	0.359000	1990.254761
9702.221030	0.098906	0.359000	2079.764893
9702.221939	0.100367	0.359000	2170.998779
9703.204303	0.700616	0.358722	309.672485
9703.205203	0.254952	0.358722	539.129639
9703.206097	0.249869	0.358722	762.512878
9703.207069	0.479000	0.358722	1228.101074
9703.207966	0.099225	0.358722	1317.105713
9703.208868	0.101649	0.358722	1408.793213
9703.209756	0.100803	0.358722	1498.306519
9703.210688	0.099716	0.358722	1591.241455
9703.211606	0.100935	0.358722	1683.899902
9703.212505	0.101488	0.358722	1775.137695
9703.213431	0.099906	0.358722	1867.650635
9703.214334	0.098947	0.358722	1956.999390
9703.215242	0.101580	0.358722	2049.233643
9703.216130	0.100228	0.358722	2138.236328
9704.244694	0.691205	0.355829	306.894958
9704.245594	0.255029	0.355829	536.421326
9704.246488	0.250005	0.355829	759.925659
9704.247455	0.487976	0.355829	1231.798584
9704.248365	0.100624	0.355829	1323.366211
9704.249266	0.102220	0.355829	1415.466797
9704.250158	0.100719	0.355829	1505.308105
9704.251097	0.099646	0.355829	1598.875732
9704.251994	0.101202	0.355829	1689.654297
9704.252884	0.102323	0.355829	1780.721802
9704.253820	0.099254	0.355829	1873.623657
9704.254728	0.099613	0.355829	1964.072266
9704.255629	0.101173	0.355829	2055.229248
9704.256515	0.102067	0.355829	2145.660400
9705.241036	0.704865	0.354730	309.435516
9705.241939	0.254960	0.354730	539.664124
9705.242839	0.249917	0.354730	764.589417
9705.243821	0.484380	0.354730	1240.250488
9705.244726	0.099983	0.354730	1330.734985
9705.245623	0.102092	0.354730	1422.311768
9705.246557	0.100323	0.354730	1516.013916
9705.247460	0.099609	0.354730	1605.961182
9705.248351	0.101576	0.354730	1696.465332
9705.249240	0.101931	0.354730	1787.082153
9705.250178	0.099067	0.354730	1880.007324
9705.251078	0.099716	0.354730	1969.751343
9705.251980	0.101265	0.354730	2061.092041
9705.252868	0.100031	0.354730	2149.919189
9706.278358	0.719681	0.352756	321.697571
9706.279264	0.254674	0.352756	552.432251
9706.280207	0.249064	0.352756	787.299316
9706.281135	0.460554	0.352756	1214.693604
9706.282033	0.101902	0.352756	1306.201416
9706.282918	0.101104	0.352756	1395.677979
9706.283863	0.099727	0.352756	1489.919556
9706.284769	0.101975	0.352756	1582.308960
9706.285667	0.101093	0.352756	1673.090088
9706.286557	0.100488	0.352756	1762.524658
9706.287486	0.099199	0.352756	1854.680786
9706.288390	0.101158	0.352756	1946.128052
9706.289284	0.101949	0.352756	2037.270874
9706.290221	0.099650	0.352756	2130.642578
9707.278788	0.722930	0.347261	313.028534
9707.279742	0.255099	0.347261	556.392883
9707.280665	0.248932	0.347261	786.156982
9707.281578	0.474064	0.347261	1218.977173
9707.282468	0.100518	0.347261	1308.437866
9707.283423	0.099620	0.347261	1403.575317
9707.284332	0.100748	0.347261	1495.155518
9707.285233	0.100594	0.347261	1585.791138
9707.286157	0.100452	0.347261	1678.608521
9707.287065	0.099155	0.347261	1768.641479
9707.287971	0.100917	0.347261	1860.072021
9707.288859	0.101554	0.347261	1950.251953
9707.289792	0.099016	0.347261	2042.634033
9707.290701	0.099111	0.347261	2132.726318
9708.313027	0.718678	0.349131	311.187561
9708.313978	0.254905	0.349131	553.601990
9708.314902	0.248859	0.349131	783.547363
9708.315808	0.490492	0.349131	1227.933105
9708.316763	0.099075	0.349131	1322.549438
9708.317681	0.100518	0.349131	1414.824585
9708.318583	0.101818	0.349131	1506.664062
9708.319476	0.101635	0.349131	1597.423706
9708.320420	0.099232	0.349131	1691.098877
9708.321320	0.100697	0.349131	1781.726196
9708.322209	0.102202	0.349131	1872.583862
9708.323121	0.100184	0.349131	1963.952026
9708.324062	0.099730	0.349131	2057.798096
9708.324968	0.101382	0.349131	2149.650146
9709.313506	0.678267	0.340458	305.898224
9709.314428	0.254729	0.340458	540.758362
9709.315323	0.249225	0.340458	763.814575
9709.316276	0.491569	0.340458	1232.279419
9709.317183	0.098873	0.340458	1321.957520
9709.318086	0.101353	0.340458	1413.478882
9709.318973	0.101660	0.340458	1503.651489
9709.319924	0.099430	0.340458	1598.209351
9709.320828	0.100518	0.340458	1689.077271
9709.321722	0.102206	0.340458	1780.449219
9709.322646	0.100573	0.340458	1873.378174
9709.323556	0.098990	0.340458	1963.459473
9709.324460	0.100485	0.340458	2054.297607
9709.325350	0.102286	0.340458	2145.332520
9710.348768	0.700148	0.346915	311.565735
9710.349663	0.254912	0.346915	539.712036
9710.350625	0.248936	0.346915	779.188049
9710.351546	0.472244	0.346915	1214.124512
9710.352434	0.100891	0.346915	1303.715820
9710.353348	0.100100	0.346915	1395.207275
9710.354287	0.101012	0.346915	1490.057495
9710.355183	0.101221	0.346915	1580.751221
9710.356075	0.101221	0.346915	1671.040039
9710.357026	0.099785	0.346915	1765.935669
9710.357929	0.101349	0.346915	1857.453735
9710.358855	0.101210	0.346915	1951.173950
9710.359741	0.101243	0.346915	2040.875000
9710.360674	0.099510	0.346915	2133.718262
9711.349247	0.720161	0.340796	354.319275
9711.350173	0.255421	0.340796	590.839233
9711.351077	0.248752	0.340796	815.711426
9711.351979	0.460151	0.340796	1230.767944
9711.352913	0.098723	0.340796	1322.975342
9711.353819	0.100492	0.340796	1414.020996
9711.354728	0.101638	0.340796	1506.410156
9711.355616	0.100712	0.340796	1595.842163
9711.356561	0.099276	0.340796	1689.658081
9711.357470	0.100939	0.340796	1781.411377
9711.358367	0.101122	0.340796	1872.117676
9711.359301	0.100089	0.340796	1965.600952
9711.360203	0.099177	0.340796	2055.058838
9711.361107	0.100873	0.340796	2146.247803
9712.384484	0.715397	0.347225	326.936279
9712.385382	0.254897	0.347225	555.834167
9712.386341	0.248968	0.347225	794.594971
9712.387256	0.479938	0.347225	1233.738037
9712.388154	0.099694	0.347225	1323.262939
9712.389048	0.102341	0.347225	1414.756104
9712.389982	0.100543	0.347225	1508.663452
9712.390879	0.100543	0.347225	1598.850708
9712.391799	0.101525	0.347225	1692.253418
9712.392692	0.100972	0.347225	1782.421143
9712.393633	0.099675	0.347225	1876.215576
9712.394527	0.101136	0.347225	1966.631592
9712.395414	0.101382	0.347225	2056.557373
9712.396349	0.099785	0.347225	2149.856445
9713.382875	0.686624	0.340022	305.547455
9713.383791	0.255198	0.340022	539.308594
9713.384699	0.249672	0.340022	766.010437
9713.385641	0.451051	0.340022	1190.900513
9713.386538	0.098676	0.340022	1279.412476
9713.387448	0.102697	0.340022	1372.866333
9713.388339	0.101404	0.340022	1463.217163
9713.389272	0.099437	0.340022	1555.992187
9713.390176	0.100089	0.340022	1646.472778
9713.391083	0.101345	0.340022	1738.392944
9713.391972	0.101144	0.340022	1828.309814
9713.392918	0.099272	0.340022	1922.221558
9713.393822	0.101364	0.340022	2013.854248
9713.394712	0.102246	0.340022	2104.853271
9714.421201	0.706000	0.351584	312.757874
9714.422097	0.254967	0.351584	541.208374
9714.423056	0.249514	0.351584	780.492432
9714.423981	0.483988	0.351584	1228.181396
9714.424882	0.101711	0.351584	1319.823364
9714.425771	0.101188	0.351584	1409.779297
9714.426699	0.100042	0.351584	1502.617798
9714.427607	0.101891	0.351584	1595.134766
9714.428498	0.102488	0.351584	1686.451416
9714.429437	0.100364	0.351584	1780.692993
9714.430351	0.100184	0.351584	1872.261475
9714.431255	0.101741	0.351584	1964.235107
9714.432146	0.101173	0.351584	2054.380371
9714.433084	0.098738	0.351584	2146.996338
9715.416530	0.701012	0.347124	308.445251
9715.417436	0.254802	0.347124	539.296082
9715.418332	0.249294	0.347124	762.663879
9715.419301	0.490041	0.347124	1237.514160
9715.420216	0.099631	0.347124	1328.676880
9715.421112	0.103114	0.347124	1421.067017
9715.422039	0.100594	0.347124	1514.318115
9715.422945	0.099408	0.347124	1604.381714
9715.423862	0.101276	0.347124	1697.251465
9715.424765	0.101140	0.347124	1788.581055
9715.425701	0.099393	0.347124	1881.613159
9715.426610	0.099492	0.347124	1972.051514
9715.427517	0.102385	0.347124	2064.915039
9715.428408	0.101188	0.347124	2155.073242
9716.459001	0.577310	0.352965	279.417816
9716.459918	0.254985	0.352965	513.239380
9716.460827	0.248646	0.352965	739.258789
9716.461725	0.481747	0.352965	1171.867432
9716.462681	0.098983	0.352965	1266.495361
9716.463592	0.101129	0.352965	1358.624023
9716.464485	0.103162	0.352965	1450.747314
9716.465426	0.100034	0.352965	1544.879517
9716.466322	0.099126	0.352965	1633.696411
9716.467228	0.101063	0.352965	1725.259644
9716.468119	0.101221	0.352965	1815.447266
9716.469059	0.098723	0.352965	1908.247070
9716.469962	0.099679	0.352965	1998.257202
9716.470867	0.100367	0.352965	2089.089844
9717.450207	0.673286	0.355588	306.345184
9717.451108	0.255114	0.355588	536.202454
9717.452048	0.249349	0.355588	770.590881
9717.452976	0.486962	0.355588	1222.491333
9717.453879	0.100865	0.355588	1313.572876
9717.454767	0.101506	0.355588	1403.710449
9717.455725	0.099316	0.355588	1498.855591
9717.456633	0.100547	0.355588	1590.152100
9717.457528	0.102261	0.355588	1681.675415
9717.458436	0.100162	0.355588	1772.622803
9717.459367	0.099027	0.355588	1864.817017
9717.460273	0.100510	0.355588	1955.879272
9717.461169	0.101301	0.355588	2046.645264
9717.462099	0.099152	0.355588	2138.856201
9718.495709	0.673044	0.354279	300.850861
9718.496625	0.254806	0.354279	534.253052
9718.497530	0.249360	0.354279	759.924194
9718.498477	0.453633	0.354279	1189.514404
9718.499380	0.098782	0.354279	1278.714355
9718.500283	0.101309	0.354279	1370.196045
9718.501173	0.101869	0.354279	1460.859375
9718.502125	0.099298	0.354279	1555.391113
9718.503024	0.099489	0.354279	1644.831299
9718.503926	0.101177	0.354279	1736.092773
9718.504808	0.100752	0.354279	1824.956055
9718.505744	0.098888	0.354279	1917.515137
9718.506657	0.099569	0.354279	2008.421753
9718.507560	0.101565	0.354279	2100.134766
9719.484878	0.704227	0.355060	305.634674
9719.485825	0.254868	0.355060	546.994812
9719.486755	0.248877	0.355060	778.450378
9719.487663	0.488793	0.355060	1222.274170
9719.488552	0.100261	0.355060	1311.406372
9719.489493	0.099800	0.355060	1405.317993
9719.490411	0.100891	0.355060	1497.936035
9719.491335	0.102605	0.355060	1592.743042
9719.492226	0.101459	0.355060	1683.142822
9719.493171	0.100675	0.355060	1778.280762
9719.494063	0.102250	0.355060	1869.487549
9719.494951	0.102246	0.355060	1960.282104
9719.495881	0.100199	0.355060	2053.467041
9719.496798	0.101528	0.355060	2146.568604
9720.532454	0.681918	0.348732	312.318329
9720.533363	0.254908	0.348732	544.030090
9720.534273	0.249236	0.348732	770.834717
9720.535223	0.485724	0.348732	1232.272461
9720.536127	0.098958	0.348732	1321.730103
9720.537030	0.102645	0.348732	1414.418823
9720.537917	0.101279	0.348732	1504.253540
9720.538877	0.099276	0.348732	1599.558594
9720.539779	0.100323	0.348732	1690.050415
9720.540677	0.101781	0.348732	1781.449707
9720.541621	0.099990	0.348732	1875.840454
9720.542517	0.099111	0.348732	1964.644165
9720.543410	0.101246	0.348732	2055.057129
9720.544311	0.101620	0.348732	2146.616699
9721.520610	0.714851	0.351197	325.972107
9721.521502	0.254480	0.351197	552.968262
9721.522450	0.248899	0.351197	788.924438
9721.523365	0.475463	0.351197	1223.972656
9721.524283	0.100400	0.351197	1316.140259
9721.525181	0.101605	0.351197	1407.381714
9721.526138	0.099869	0.351197	1502.956665
9721.527041	0.101422	0.351197	1594.540771
9721.527957	0.101968	0.351197	1687.943237
9721.528849	0.101517	0.351197	1778.496704
9721.529811	0.100701	0.351197	1875.370728
9721.530705	0.100660	0.351197	1965.361084
9721.531591	0.101737	0.351197	2055.500000
9721.532521	0.099108	0.351197	2147.670166
9722.566106	0.700671	0.345884	316.703461
9722.567004	0.254528	0.345884	545.269226
9722.567930	0.249045	0.345884	775.885254
9722.568871	0.490206	0.345884	1237.169434
9722.569780	0.100316	0.345884	1328.356812
9722.570676	0.101700	0.345884	1419.480469
9722.571619	0.099532	0.345884	1513.339600
9722.572522	0.099635	0.345884	1603.310059
9722.573428	0.101572	0.345884	1695.334473
9722.574321	0.100884	0.345884	1785.423706
9722.575266	0.099214	0.345884	1879.180786
9722.576173	0.099983	0.345884	1969.865234
9722.577062	0.101832	0.345884	2060.394043
9722.577988	0.100005	0.345884	2152.998535
9723.559404	0.693344	0.352333	320.324707
9723.560311	0.254963	0.352333	551.576477
9723.561204	0.249591	0.352333	774.461304
9723.562159	0.427504	0.352333	1182.727295
9723.563083	0.100199	0.352333	1275.311157
9723.563986	0.102239	0.352333	1367.632812
9723.564877	0.101484	0.352333	1458.055420
9723.565806	0.099686	0.352333	1550.663940
9723.566716	0.100796	0.352333	1642.388184
9723.567639	0.102169	0.352333	1736.690308
9723.568528	0.100510	0.352333	1826.043945
9723.569484	0.099635	0.352333	1921.295044
9723.570377	0.100338	0.352333	2010.896973
9723.571269	0.101184	0.352333	2101.153076
9724.595678	0.673502	0.351249	306.443512
9724.596584	0.254667	0.351249	537.171570
9724.597477	0.249294	0.351249	759.791504
9724.598428	0.474155	0.351249	1210.713135
9724.599340	0.099858	0.351249	1301.783936
9724.600233	0.102129	0.351249	1392.985107
9724.601160	0.099796	0.351249	1485.496094
9724.602067	0.099261	0.351249	1575.526245
9724.602977	0.100854	0.351249	1667.303833
9724.603873	0.102484	0.351249	1759.129639
9724.604817	0.099368	0.351249	1852.932739
9724.605723	0.099510	0.351249	1943.089233
9724.606629	0.101495	0.351249	2035.044067
9724.607516	0.100862	0.351249	2124.508545
9725.599236	0.633761	0.363806	314.345459
9725.600170	0.255018	0.363806	552.532593
9725.601097	0.247950	0.363806	782.382690
9725.601997	0.475400	0.363806	1210.243042
9725.602965	0.100503	0.363806	1307.529907
9725.603885	0.101444	0.363806	1400.858521
9725.604773	0.100737	0.363806	1490.313232
9725.605713	0.099598	0.363806	1583.935669
9725.606616	0.101646	0.363806	1675.721558
9725.607539	0.101547	0.363806	1769.449097
9725.608430	0.100393	0.363806	1858.899292
9725.609387	0.100547	0.363806	1955.122681
9725.610289	0.101609	0.363806	2046.773926
9725.611213	0.103235	0.363806	2142.162842
9726.624248	0.733484	0.360539	355.006195
9726.625181	0.254835	0.360539	592.767456
9726.626104	0.248075	0.360539	821.740601
9726.627011	0.475825	0.360539	1253.314087
9726.627943	0.098943	0.360539	1345.528809
9726.628850	0.100107	0.360539	1436.326294
9726.629750	0.101667	0.360539	1527.827026
9726.630638	0.100796	0.360539	1617.333740
9726.631587	0.099393	0.360539	1711.657959
9726.632497	0.099899	0.360539	1802.565796
9726.633398	0.102081	0.360539	1894.541016
9726.634326	0.100074	0.360539	1987.410156
9726.635219	0.098672	0.360539	2075.524170
9726.636128	0.100906	0.360539	2167.247559
9727.639003	0.672762	0.364994	304.088623
9727.639906	0.255095	0.364994	534.439575
9727.640847	0.249272	0.364994	769.004944
9727.641775	0.485138	0.364994	1219.212891
9727.642683	0.100752	0.364994	1310.695679
9727.643579	0.101726	0.364994	1401.842285
9727.644515	0.099814	0.364994	1495.268555
9727.645413	0.099866	0.364994	1584.947998
9727.646312	0.102231	0.364994	1676.854004
9727.647201	0.101481	0.364994	1767.070312
9727.648141	0.099291	0.364994	1860.403687
9727.649055	0.099767	0.364994	1951.590576
9727.649955	0.101173	0.364994	2042.646362
9727.650886	0.100529	0.364994	2136.238525
9728.654816	0.664731	0.364901	297.799683
9728.655739	0.254993	0.364901	533.157959
9728.656638	0.249170	0.364901	757.161743
9728.657603	0.480315	0.364901	1220.665649
9728.658503	0.098789	0.364901	1309.575806
9728.659402	0.102426	0.364901	1401.656372
9728.660297	0.101199	0.364901	1492.229248
9728.661232	0.099434	0.364901	1585.199707
9728.662146	0.100316	0.364901	1676.888672
9728.663051	0.101257	0.364901	1768.526611
9728.663956	0.100536	0.364901	1859.511597
9728.664888	0.099181	0.364901	1951.948242
9728.665796	0.101770	0.364901	2044.355469
9728.666689	0.101082	0.364901	2134.621338
9729.679813	0.719414	0.356224	312.225708
9729.680765	0.254868	0.356224	554.860168
9729.681690	0.248976	0.356224	785.162842
9729.682604	0.487009	0.356224	1230.289307
9729.683498	0.100408	0.356224	1320.053833
9729.684453	0.099518	0.356224	1415.093384
9729.685360	0.100225	0.356224	1505.997070
9729.686265	0.101246	0.356224	1597.625000
9729.687160	0.100627	0.356224	1687.686523
9729.688101	0.099104	0.356224	1780.943359
9729.689005	0.100895	0.356224	1872.152222
9729.689895	0.101499	0.356224	1962.486328
9729.690826	0.099430	0.356224	2055.055664
9729.691732	0.098837	0.356224	2144.601807
9730.687489	0.578049	0.367326	284.400269
9730.688409	0.255337	0.367326	519.310242
9730.689310	0.249005	0.367326	743.663879
9730.690211	0.483376	0.367326	1179.186035
9730.691163	0.098730	0.367326	1273.177490
9730.692069	0.101733	0.367326	1365.347900
9730.692961	0.101997	0.367326	1456.329346
9730.693894	0.101342	0.367326	1550.880981
9730.694798	0.099456	0.367326	1640.788818
9730.695710	0.102213	0.367326	1734.007202
9730.696608	0.102382	0.367326	1825.945923
9730.697543	0.099141	0.367326	1918.642456
9730.698447	0.099393	0.367326	2008.494019
9730.699348	0.100865	0.367326	2099.373779
9731.717601	0.686906	0.350005	308.420563
9731.718528	0.255029	0.350005	544.832703
9731.719424	0.249401	0.350005	768.295654
9731.720355	0.388290	0.350005	1129.793457
9731.721278	0.098602	0.350005	1220.803345
9731.722186	0.101869	0.350005	1313.300293
9731.723079	0.101517	0.350005	1403.955322
9731.724003	0.099624	0.350005	1496.007935
9731.724908	0.099576	0.350005	1586.124634
9731.725808	0.102433	0.350005	1678.314209
9731.726696	0.101276	0.350005	1768.246948
9731.727642	0.099309	0.350005	1862.193359
9731.728546	0.099441	0.350005	1952.087891
9731.729437	0.101858	0.350005	2042.843262
9732.723153	0.716752	0.366078	314.653992
9732.724114	0.255209	0.366078	559.909607
9732.725027	0.248566	0.366078	786.850098
9732.725940	0.491858	0.366078	1235.916382
9732.726828	0.099591	0.366078	1324.353271
9732.727775	0.099631	0.366078	1418.704102
9732.728675	0.100686	0.366078	1509.321533
9732.729566	0.101616	0.366078	1599.861572
9732.730504	0.100111	0.366078	1693.765747
9732.731414	0.099247	0.366078	1784.080322
9732.732316	0.100887	0.366078	1875.080811
9732.733205	0.100726	0.366078	1964.626465
9732.734157	0.098763	0.366078	2058.649170
9732.735057	0.099723	0.366078	2148.399902
9733.753289	0.714760	0.342818	313.064667
9733.754256	0.255454	0.342818	560.088745
9733.755171	0.249023	0.342818	787.945190
9733.756073	0.484647	0.342818	1225.096924
9733.757005	0.100005	0.342818	1318.301514
9733.757910	0.099653	0.342818	1408.487793
9733.758813	0.102133	0.342818	1500.713501
9733.759703	0.101851	0.342818	1591.360474
9733.760640	0.099781	0.342818	1684.855713
9733.761540	0.099844	0.342818	1774.715088
9733.762442	0.101221	0.342818	1866.016113
9733.763328	0.100214	0.342818	1954.805420
9733.764263	0.099122	0.342818	2047.484741
9733.765166	0.100671	0.342818	2138.391113
9734.757847	0.690612	0.365300	306.631531
9734.758756	0.254685	0.365300	538.140259
9734.759655	0.249554	0.365300	762.489685
9734.760595	0.456215	0.365300	1191.331421
9734.761501	0.099218	0.365300	1281.222534
9734.762408	0.102202	0.365300	1373.919922
9734.763296	0.101631	0.365300	1464.168091
9734.764225	0.099525	0.365300	1556.626953
9734.765130	0.100576	0.365300	1647.648437
9734.766032	0.100942	0.365300	1738.698486
9734.766924	0.100946	0.365300	1828.742310
9734.767880	0.098987	0.365300	1923.373657
9734.768782	0.100708	0.365300	2014.212280
9734.769675	0.101667	0.365300	2105.001221
9735.784920	0.681870	0.349453	308.887146
9735.785817	0.255168	0.349453	537.773254
9735.786784	0.249419	0.349453	778.961365
9735.787711	0.462363	0.349453	1207.572021
9735.788601	0.100580	0.349453	1297.088013
9735.789490	0.101722	0.349453	1387.519287
9735.790432	0.099679	0.349453	1481.416870
9735.791342	0.099998	0.349453	1572.414673
9735.792252	0.101869	0.349453	1665.115356
9735.793141	0.100477	0.349453	1754.439697
9735.794089	0.099357	0.349453	1848.629883
9735.795000	0.100404	0.349453	1940.098022
9735.795897	0.101821	0.349453	2031.431763
9735.796845	0.099514	0.349453	2125.771240
9736.794576	0.691490	0.369051	304.255798
9736.795485	0.254912	0.369051	535.970886
9736.796378	0.249899	0.369051	759.130371
9736.797338	0.483281	0.369051	1223.080322
9736.798245	0.100715	0.369051	1314.429077
9736.799138	0.102122	0.369051	1405.623657
9736.800025	0.101173	0.369051	1495.364136
9736.800969	0.099463	0.369051	1589.257080
9736.801866	0.101228	0.369051	1680.058594
9736.802763	0.100690	0.369051	1770.377197
9736.803693	0.100642	0.369051	1863.974365
9736.804610	0.099543	0.369051	1955.255737
9736.805510	0.101499	0.369051	2046.604858
9736.806406	0.100741	0.369051	2136.868652
9737.819597	0.715107	0.348067	314.647278
9737.820578	0.255300	0.348067	565.096863
9737.821497	0.248445	0.348067	793.417664
9737.822396	0.475444	0.348067	1220.842163
9737.823334	0.099884	0.348067	1314.533447
9737.824234	0.099749	0.348067	1404.307129
9737.825139	0.101927	0.348067	1496.551514
9737.826031	0.101748	0.348067	1587.310791
9737.826971	0.099595	0.348067	1680.929810
9737.827875	0.099800	0.348067	1771.148804
9737.828781	0.101635	0.348067	1863.229736
9737.829678	0.100199	0.348067	1953.108154
9737.830614	0.099100	0.348067	2045.866089
9737.831525	0.100474	0.348067	2137.397461
9738.831316	0.705886	0.371504	314.119354
9738.832212	0.254476	0.371504	542.130127
9738.833106	0.249309	0.371504	765.012451
9738.834088	0.491470	0.371504	1247.635742
9738.834996	0.101213	0.371504	1339.537476
9738.835883	0.102411	0.371504	1430.375977
9738.836801	0.100236	0.371504	1522.392212
9738.837715	0.099884	0.371504	1613.686279
9738.838619	0.100682	0.371504	1704.703125
9738.839508	0.101550	0.371504	1794.981323
9738.840440	0.099196	0.371504	1887.431641
9738.841354	0.099924	0.371504	1978.762451
9738.842253	0.101353	0.371504	2069.878418
9738.843142	0.101034	0.371504	2159.697510
9739.851235	0.664482	0.348244	301.010529
9739.852128	0.254828	0.348244	528.571838
9739.853082	0.249155	0.348244	766.265991
9739.853993	0.486273	0.348244	1209.260864
9739.854889	0.101151	0.348244	1299.892334
9739.855775	0.100763	0.348244	1389.168335
9739.856717	0.099635	0.348244	1483.024536
9739.857622	0.099965	0.348244	1573.492554
9739.858526	0.101711	0.348244	1665.439697
9739.859415	0.100781	0.348244	1755.034180
9739.860370	0.099305	0.348244	1849.870850
9739.861269	0.100173	0.348244	1939.926636
9739.862161	0.101331	0.348244	2030.313477
9739.863110	0.099474	0.348244	2124.714111
9740.867041	0.649878	0.371697	294.394714
9740.867962	0.254509	0.371697	528.797791
9740.868872	0.248621	0.371697	755.042542
9740.869775	0.445353	0.371697	1157.196045
9740.870724	0.098763	0.371697	1250.922485
9740.871625	0.101012	0.371697	1341.934326
9740.872515	0.101953	0.371697	1432.672607
9740.873446	0.100232	0.371697	1525.988525
9740.874354	0.100682	0.371697	1617.408081
9740.875250	0.101235	0.371697	1708.114990
9740.876138	0.100964	0.371697	1797.771362
9740.877087	0.099188	0.371697	1891.901001
9740.877994	0.100532	0.371697	1983.083740
9740.878894	0.100957	0.371697	2073.945068
9741.886935	0.690948	0.343028	306.781128
9741.887853	0.254667	0.343028	540.565186
9741.888751	0.249404	0.343028	764.530212
9741.889702	0.491752	0.343028	1232.186035
9741.890606	0.099137	0.343028	1321.805908
9741.891501	0.101353	0.343028	1412.516479
9741.892391	0.101312	0.343028	1502.684326
9741.893323	0.099727	0.343028	1595.629517
9741.894230	0.100752	0.343028	1687.011475
9741.895129	0.101616	0.343028	1778.364502
9741.896060	0.100093	0.343028	1871.550903
9741.896971	0.099239	0.343028	1961.958130
9741.897880	0.101437	0.343028	2054.164062
9741.898772	0.100063	0.343028	2143.420654
9742.901707	0.718740	0.369393	311.933258
9742.902657	0.254850	0.369393	554.040649
9742.903576	0.249082	0.369393	782.947021
9742.904498	0.489291	0.369393	1234.073120
9742.905395	0.101473	0.369393	1325.094727
9742.906327	0.099521	0.369393	1417.848755
9742.907227	0.100078	0.369393	1507.919067
9742.908127	0.101909	0.369393	1599.637329
9742.909020	0.100657	0.369393	1689.523804
9742.909976	0.099452	0.369393	1784.599854
9742.910880	0.100100	0.369393	1875.090332
9742.911773	0.100122	0.369393	1964.499390
9742.912703	0.099884	0.369393	2057.391602
9742.913605	0.099078	0.369393	2146.760254
